"","stealTrial","harmTrial","trialType","earnTrial","trials.thisRepN","trials.thisTrialN","trials.thisN","trials.thisIndex","instr_response.keys","instr_response.rt","key_resp_2.keys","key_resp_2.rt","introKey.keys","introKey.rt","Trial.Start","Trial.Start.Wall","choiceResponse.keys","choiceResponse.rt","choiceType","Trial.End","Trial.End.Wall","nKeyPress","gamePressTimes","riskDisplaySide","Play.End","Play.End.Wall","session","participant","frameRate","expName","date","type","X","choiceValue","catchFlag","logChoiceRT"
"4",24,72,"reg",18,0,0,0,19,NA,NA,NA,NA,NA,NA,117.927878141,"Tue Jul 12 11:49:57 2016",0,4.14254307747,"steal",122.594226122,"Tue Jul 12 11:50:02 2016",10,"[123.21361708641052, 123.38862109184265, 123.54587292671204, 123.7029800415039, 123.86316800117493, 124.03206205368042, 124.19145798683167, 124.36595010757446, 124.55862593650818, 124.74999213218689]","right",125.753334045,"Tue Jul 12 11:50:05 2016",1,"PROV006",59.8953549478,"PSAP_PRO_V","2016_Jul_12_1148","A",NA,24,"fine",1.42130986917097
"5",15,63,"reg",14,0,1,1,13,NA,NA,NA,NA,NA,NA,125.754153967,"Tue Jul 12 11:50:05 2016",1,2.92484402657,"bank",129.209517956,"Tue Jul 12 11:50:08 2016",10,"[129.74200010299683, 129.9197380542755, 130.0948669910431, 130.23785710334778, 130.3801989555359, 130.54424405097961, 130.7008831501007, 130.88494300842285, 131.0619990825653, 131.2472939491272]","right",132.253350019,"Tue Jul 12 11:50:11 2016",1,"PROV006",59.8953549478,"PSAP_PRO_V","2016_Jul_12_1148","A",NA,14,"fine",1.07324115501246
"6",8,32,"reg",4,0,2,2,61,NA,NA,NA,NA,NA,NA,132.254348993,"Tue Jul 12 11:50:12 2016",1,3.27554416656,"steal",136.05738616,"Tue Jul 12 11:50:15 2016",10,"[136.47677493095398, 136.6585190296173, 136.81411004066467, 136.97621512413025, 137.12473893165588, 137.28594207763672, 137.44531893730164, 137.6094090938568, 137.77955198287964, 137.96592211723328]","left",138.981363058,"Tue Jul 12 11:50:18 2016",1,"PROV006",59.8953549478,"PSAP_PRO_V","2016_Jul_12_1148","A",NA,8,"fine",1.18648401301279
"7",12,0,"zero",80,0,3,3,0,NA,NA,NA,NA,NA,NA,138.982037067,"Tue Jul 12 11:50:18 2016",1,1.55380606651,"bank",141.067031145,"Tue Jul 12 11:50:20 2016",10,"[141.36702609062195, 141.54067301750183, 141.70101594924927, 141.85176515579224, 141.99252605438232, 142.13718104362488, 142.28735303878784, 142.4469130039215, 142.61381316184998, 142.79764008522034]","right",143.808382034,"Tue Jul 12 11:50:23 2016",1,"PROV006",59.8953549478,"PSAP_PRO_V","2016_Jul_12_1148","A",NA,80,"fine",0.440707447832135
"8",38,51,"reg",28,0,4,4,18,NA,NA,NA,NA,NA,NA,143.809092999,"Tue Jul 12 11:50:23 2016",0,2.757791996,"steal",147.097563028,"Tue Jul 12 11:50:26 2016",10,"[147.5634639263153, 147.7490589618683, 147.8930950164795, 148.0513801574707, 148.2044551372528, 148.36682200431824, 148.50941514968872, 148.666020154953, 148.8229410648346, 148.9900460243225]","right",150.007864952,"Tue Jul 12 11:50:29 2016",1,"PROV006",59.8953549478,"PSAP_PRO_V","2016_Jul_12_1148","A",NA,38,"fine",1.01443035810785
"9",9,18,"reg",8,0,5,5,3,NA,NA,NA,NA,NA,NA,150.008857012,"Tue Jul 12 11:50:29 2016",0,1.64071702957,"bank",152.177866936,"Tue Jul 12 11:50:31 2016",10,"[152.7246870994568, 152.89352011680603, 153.05254101753235, 153.21193194389343, 153.3762879371643, 153.52646207809448, 153.69493103027344, 153.86172914505005, 154.02924799919128, 154.2113950252533]","left",155.218673944,"Tue Jul 12 11:50:34 2016",1,"PROV006",59.8953549478,"PSAP_PRO_V","2016_Jul_12_1148","A",NA,8,"fine",0.495133359438725
"10",86,94,"reg",38,0,6,6,75,NA,NA,NA,NA,NA,NA,155.21965003,"Tue Jul 12 11:50:34 2016",1,1.57388401031,"steal",157.322137117,"Tue Jul 12 11:50:37 2016",10,"[157.7019259929657, 157.87509608268738, 158.0139720439911, 158.16955995559692, 158.320228099823, 158.47034406661987, 158.6223340034485, 158.78914213180542, 158.9731321334839, 159.1490831375122]","left",160.162786961,"Tue Jul 12 11:50:39 2016",1,"PROV006",59.8953549478,"PSAP_PRO_V","2016_Jul_12_1148","A",NA,86,"fine",0.453546456244316
"11",45,46,"reg",18,0,7,7,77,NA,NA,NA,NA,NA,NA,160.163777113,"Tue Jul 12 11:50:39 2016",1,1.73747205734,"steal",162.429214954,"Tue Jul 12 11:50:42 2016",10,"[162.7568769454956, 162.92976593971252, 163.08305096626282, 163.25390696525574, 163.42111015319824, 163.58276915550232, 163.74242997169495, 163.91516208648682, 164.08565497398376, 164.2773129940033]","left",165.307119131,"Tue Jul 12 11:50:45 2016",1,"PROV006",59.8953549478,"PSAP_PRO_V","2016_Jul_12_1148","A",NA,45,"fine",0.552431216221017
"12",43,70,"reg",24,0,8,8,44,NA,NA,NA,NA,NA,NA,165.308102131,"Tue Jul 12 11:50:45 2016",0,1.87272000313,"steal",167.708675146,"Tue Jul 12 11:50:47 2016",10,"[168.23116397857666, 168.3983039855957, 168.55853009223938, 168.7156081199646, 168.86979913711548, 169.02759099006653, 169.18015003204346, 169.3603320121765, 169.5439989566803, 169.73089408874512]","right",170.752252102,"Tue Jul 12 11:50:50 2016",1,"PROV006",59.8953549478,"PSAP_PRO_V","2016_Jul_12_1148","A",NA,43,"fine",0.627391921165844
"13",31,105,"reg",17,0,9,9,48,NA,NA,NA,NA,NA,NA,170.753483057,"Tue Jul 12 11:50:50 2016",1,2.72452402115,"bank",174.005211115,"Tue Jul 12 11:50:53 2016",10,"[174.36504697799683, 174.55617094039917, 174.7214379310608, 174.87899208068848, 175.0392210483551, 175.196702003479, 175.3561770915985, 175.5340931415558, 175.74189805984497, 175.95771598815918]","right",176.965357065,"Tue Jul 12 11:50:56 2016",1,"PROV006",59.8953549478,"PSAP_PRO_V","2016_Jul_12_1148","A",NA,17,"fine",1.00229374172081
"14",72,36,"reg",29,0,10,10,79,NA,NA,NA,NA,NA,NA,176.966349125,"Tue Jul 12 11:50:56 2016",0,1.54053092003,"steal",179.035100937,"Tue Jul 12 11:50:58 2016",10,"[179.550222158432, 179.71668004989624, 179.88432002067566, 180.05118894577026, 180.21798014640808, 180.3853199481964, 180.55701303482056, 180.72400903701782, 180.90806102752686, 181.08668303489685]","right",182.092824936,"Tue Jul 12 11:51:01 2016",1,"PROV006",59.8953549478,"PSAP_PRO_V","2016_Jul_12_1148","A",NA,72,"fine",0.432127110278019
"15",40,75,"reg",22,0,11,11,53,NA,NA,NA,NA,NA,NA,182.093805075,"Tue Jul 12 11:51:01 2016",0,2.20691800117,"steal",184.828350067,"Tue Jul 12 11:51:04 2016",10,"[185.31092715263367, 185.50091004371643, 185.65156507492065, 185.8351719379425, 186.0122470855713, 186.18997502326965, 186.38154697418213, 186.5482211112976, 186.74111413955688, 186.94759798049927]","right",187.952167988,"Tue Jul 12 11:51:07 2016",1,"PROV006",59.8953549478,"PSAP_PRO_V","2016_Jul_12_1148","A",NA,40,"fine",0.791596972606122
"16",47,39,"reg",43,0,12,12,14,NA,NA,NA,NA,NA,NA,187.95283103,"Tue Jul 12 11:51:07 2016",1,1.37214803696,"bank",189.856256008,"Tue Jul 12 11:51:09 2016",10,"[190.26097011566162, 190.43847513198853, 190.59505915641785, 190.76246809959412, 190.92272400856018, 191.09304809570312, 191.25673604011536, 191.42372608184814, 191.6141541004181, 191.83538699150085]","right",192.849004984,"Tue Jul 12 11:51:12 2016",1,"PROV006",59.8953549478,"PSAP_PRO_V","2016_Jul_12_1148","A",NA,43,"fine",0.316377422141944
"17",34,10,"reg",23,0,13,13,32,NA,NA,NA,NA,NA,NA,192.849993944,"Tue Jul 12 11:51:12 2016",0,1.85649204254,"steal",195.234466076,"Tue Jul 12 11:51:14 2016",10,"[195.80119395256042, 195.97329306602478, 196.14128994941711, 196.30240893363953, 196.47450709342957, 196.63492107391357, 196.8203001022339, 196.9871129989624, 197.16350412368774, 197.3600311279297]","right",198.391077995,"Tue Jul 12 11:51:18 2016",1,"PROV006",59.8953549478,"PSAP_PRO_V","2016_Jul_12_1148","A",NA,34,"fine",0.618688708355949
"18",36,16,"reg",18,0,14,14,60,NA,NA,NA,NA,NA,NA,198.39174509,"Tue Jul 12 11:51:18 2016",0,1.6725590229,"steal",200.595606089,"Tue Jul 12 11:51:20 2016",10,"[201.11249804496765, 201.28501915931702, 201.45137810707092, 201.61225414276123, 201.77940106391907, 201.9405701160431, 202.1037130355835, 202.27096509933472, 202.44863414764404, 202.63417196273804]","right",203.652039051,"Tue Jul 12 11:51:23 2016",1,"PROV006",59.8953549478,"PSAP_PRO_V","2016_Jul_12_1148","A",NA,36,"fine",0.514354802621776
"19",22,51,"reg",20,0,15,15,15,NA,NA,NA,NA,NA,NA,203.652709961,"Tue Jul 12 11:51:23 2016",1,1.57236409187,"bank",205.756525993,"Tue Jul 12 11:51:25 2016",10,"[206.2120270729065, 206.38900899887085, 206.55767011642456, 206.7081060409546, 206.8637890815735, 207.03454399108887, 207.19209909439087, 207.35953998565674, 207.53115606307983, 207.74190497398376]","right",208.746863127,"Tue Jul 12 11:51:28 2016",1,"PROV006",59.8953549478,"PSAP_PRO_V","2016_Jul_12_1148","A",NA,20,"fine",0.452580277793745
"20",39,18,"reg",26,0,16,16,40,NA,NA,NA,NA,NA,NA,208.74753499,"Tue Jul 12 11:51:28 2016",0,3.32615804672,"bank",212.604274035,"Tue Jul 12 11:51:32 2016",10,"[213.07009196281433, 213.2202970981598, 213.38120794296265, 213.53122305870056, 213.69102907180786, 213.84434700012207, 214.0068700313568, 214.16181206703186, 214.3392391204834, 214.52282810211182]","left",215.530874968,"Tue Jul 12 11:51:35 2016",1,"PROV006",59.8953549478,"PSAP_PRO_V","2016_Jul_12_1148","A",NA,26,"fine",1.20181789819859
"21",41,148,"reg",23,0,17,17,55,NA,NA,NA,NA,NA,NA,215.531878948,"Tue Jul 12 11:51:35 2016",0,1.83770704269,"bank",217.897326946,"Tue Jul 12 11:51:37 2016",10,"[218.37100410461426, 218.5379650592804, 218.69837307929993, 218.86721897125244, 219.01938104629517, 219.1862199306488, 219.33985209465027, 219.50039505958557, 219.65059208869934, 219.83410000801086]","left",220.841999054,"Tue Jul 12 11:51:40 2016",1,"PROV006",59.8953549478,"PSAP_PRO_V","2016_Jul_12_1148","A",NA,23,"fine",0.608518622051235
"22",56,111,"reg",31,0,18,18,56,NA,NA,NA,NA,NA,NA,220.842985153,"Tue Jul 12 11:51:40 2016",0,1.80496501923,"bank",223.175770998,"Tue Jul 12 11:51:42 2016",10,"[223.69929194450378, 223.86622714996338, 224.04470896720886, 224.19378805160522, 224.3621311187744, 224.51427006721497, 224.6843900680542, 224.85124015808105, 225.03523898124695, 225.23588705062866]","left",226.268033028,"Tue Jul 12 11:51:46 2016",1,"PROV006",59.8953549478,"PSAP_PRO_V","2016_Jul_12_1148","A",NA,31,"fine",0.590541211669073
"23",56,24,"reg",28,0,19,19,58,NA,NA,NA,NA,NA,NA,226.268706083,"Tue Jul 12 11:51:46 2016",1,1.13577795029,"steal",227.934538126,"Tue Jul 12 11:51:47 2016",10,"[228.47115993499756, 228.63660502433777, 228.8126139640808, 228.97043108940125, 229.12774300575256, 229.29418802261353, 229.4441180229187, 229.62189197540283, 229.8058159351349, 229.99350714683533]","left",231.010591984,"Tue Jul 12 11:51:50 2016",1,"PROV006",59.8953549478,"PSAP_PRO_V","2016_Jul_12_1148","A",NA,56,"fine",0.12731783489892
"24",48,22,"reg",32,0,20,20,37,NA,NA,NA,NA,NA,NA,231.011266947,"Tue Jul 12 11:51:50 2016",0,1.7908987999,"steal",233.33394599,"Tue Jul 12 11:51:53 2016",10,"[233.91612315177917, 234.0751371383667, 234.2500660419464, 234.41500210762024, 234.58617305755615, 234.75506210327148, 234.91639804840088, 235.08352613449097, 235.26896405220032, 235.45094108581543]","right",236.458296061,"Tue Jul 12 11:51:56 2016",1,"PROV006",59.8953549478,"PSAP_PRO_V","2016_Jul_12_1148","A",NA,48,"fine",0.582717616680332
"25",15,3,"reg",10,0,21,21,38,NA,NA,NA,NA,NA,NA,236.459290028,"Tue Jul 12 11:51:56 2016",1,1.00285601616,"steal",237.99131608,"Tue Jul 12 11:51:57 2016",10,"[238.57746005058289, 238.74807596206665, 238.91505908966064, 239.08212614059448, 239.2607569694519, 239.41105008125305, 239.57983803749084, 239.7466459274292, 239.95085406303406, 240.19605708122253]","left",241.201703072,"Tue Jul 12 11:52:00 2016",1,"PROV006",59.8953549478,"PSAP_PRO_V","2016_Jul_12_1148","A",NA,15,"fine",0.00285194549459582
"26",29,47,"reg",26,0,22,22,16,NA,NA,NA,NA,NA,NA,241.202686071,"Tue Jul 12 11:52:00 2016",0,1.55374598503,"steal",243.284778118,"Tue Jul 12 11:52:03 2016",10,"[243.82500505447388, 244.00240802764893, 244.1559910774231, 244.31982707977295, 244.47327613830566, 244.62718296051025, 244.7890169620514, 244.96583199501038, 245.13811707496643, 245.3219940662384]","right",246.32682395,"Tue Jul 12 11:52:06 2016",1,"PROV006",59.8953549478,"PSAP_PRO_V","2016_Jul_12_1148","A",NA,29,"fine",0.440668779787957
"27",4,6,"reg",3,0,23,23,36,NA,NA,NA,NA,NA,NA,246.327502966,"Tue Jul 12 11:52:06 2016",0,1.84127187729,"bank",248.700221062,"Tue Jul 12 11:52:08 2016",10,"[249.20427012443542, 249.37131214141846, 249.52251315116882, 249.69788002967834, 249.86510610580444, 250.031907081604, 250.19912004470825, 250.38251900672913, 250.55661702156067, 250.74061393737793]","left",251.774618149,"Tue Jul 12 11:52:11 2016",1,"PROV006",59.8953549478,"PSAP_PRO_V","2016_Jul_12_1148","A",NA,3,"fine",0.61045657048379
"28",11,2,"reg",10,0,24,24,8,NA,NA,NA,NA,NA,NA,251.775609016,"Tue Jul 12 11:52:11 2016",0,1.53708410263,"steal",253.840577126,"Tue Jul 12 11:52:13 2016",10,"[254.3944230079651, 254.56934309005737, 254.74202013015747, 254.9106800556183, 255.07589197158813, 255.23280310630798, 255.40429401397705, 255.5772659778595, 255.74795794487, 255.92947793006897]","right",256.932510138,"Tue Jul 12 11:52:16 2016",1,"PROV006",59.8953549478,"PSAP_PRO_V","2016_Jul_12_1148","A",NA,11,"fine",0.429887181751703
"29",23,0,"zero",54,0,25,25,1,NA,NA,NA,NA,NA,NA,256.933195114,"Tue Jul 12 11:52:16 2016",1,0.972636938095,"bank",258.437520027,"Tue Jul 12 11:52:18 2016",10,"[258.9859881401062, 259.15452909469604, 259.3249011039734, 259.491975069046, 259.6526789665222, 259.8210120201111, 259.9880061149597, 260.154993057251, 260.35553193092346, 260.55439496040344]","right",261.558809996,"Tue Jul 12 11:52:21 2016",1,"PROV006",59.8953549478,"PSAP_PRO_V","2016_Jul_12_1148","A",NA,54,"fine",-0.0277444030219241
"30",86,17,"reg",43,0,26,26,57,NA,NA,NA,NA,NA,NA,261.559478998,"Tue Jul 12 11:52:21 2016",0,1.31995606422,"steal",263.410839081,"Tue Jul 12 11:52:23 2016",10,"[263.8299069404602, 263.99466609954834, 264.1561689376831, 264.3126640319824, 264.479385137558, 264.64810514450073, 264.8134801387787, 264.9801139831543, 265.17076897621155, 265.3546550273895]","right",266.369189978,"Tue Jul 12 11:52:26 2016",1,"PROV006",59.8953549478,"PSAP_PRO_V","2016_Jul_12_1148","A",NA,86,"fine",0.277598451362514
"31",54,46,"reg",40,0,27,27,22,NA,NA,NA,NA,NA,NA,266.369884968,"Tue Jul 12 11:52:26 2016",0,1.43651795387,"bank",268.337650061,"Tue Jul 12 11:52:28 2016",10,"[268.92372703552246, 269.10764503479004, 269.25793504714966, 269.4290919303894, 269.5967791080475, 269.7587010860443, 269.92559814453125, 270.0815441608429, 270.2582859992981, 270.44374203681946]","left",271.446933031,"Tue Jul 12 11:52:31 2016",1,"PROV006",59.8953549478,"PSAP_PRO_V","2016_Jul_12_1148","A",NA,40,"fine",0.362222097702299
"32",21,5,"reg",14,0,28,28,27,NA,NA,NA,NA,NA,NA,271.447607994,"Tue Jul 12 11:52:31 2016",1,1.05617690086,"steal",273.035251141,"Tue Jul 12 11:52:32 2016",10,"[273.50006008148193, 273.6764860153198, 273.8327970504761, 273.99482798576355, 274.1569969654083, 274.3186240196228, 274.4856240749359, 274.65781903266907, 274.8348340988159, 275.0084240436554]","left",276.026175022,"Tue Jul 12 11:52:35 2016",1,"PROV006",59.8953549478,"PSAP_PRO_V","2016_Jul_12_1148","A",NA,21,"fine",0.0546556910079904
"33",97,5,"reg",43,0,29,29,67,NA,NA,NA,NA,NA,NA,276.027168989,"Tue Jul 12 11:52:35 2016",0,1.01930904388,"steal",277.57446599,"Tue Jul 12 11:52:37 2016",10,"[278.05837297439575, 278.2435851097107, 278.39407205581665, 278.5664110183716, 278.72971200942993, 278.900395154953, 279.0672061443329, 279.23413610458374, 279.42050409317017, 279.6184010505676]","right",280.653414011,"Tue Jul 12 11:52:40 2016",1,"PROV006",59.8953549478,"PSAP_PRO_V","2016_Jul_12_1148","A",NA,97,"fine",0.0191249897909535
"34",30,8,"reg",20,0,30,30,28,NA,NA,NA,NA,NA,NA,280.654402018,"Tue Jul 12 11:52:40 2016",1,0.921768903732,"steal",282.102777004,"Tue Jul 12 11:52:41 2016",10,"[282.6683919429779, 282.84193205833435, 283.0096490383148, 283.1691770553589, 283.32325506210327, 283.47346806526184, 283.63704109191895, 283.79360699653625, 283.9559769630432, 284.09142112731934]","left",285.112426043,"Tue Jul 12 11:52:44 2016",1,"PROV006",59.8953549478,"PSAP_PRO_V","2016_Jul_12_1148","A",NA,30,"fine",-0.0814607335541768
"35",20,3,"reg",18,0,31,31,10,NA,NA,NA,NA,NA,NA,285.113420963,"Tue Jul 12 11:52:44 2016",0,1.25658106804,"steal",286.898234129,"Tue Jul 12 11:52:46 2016",10,"[287.75303506851196, 287.9291400909424, 288.15155696868896, 288.26366806030273, 288.42548298835754, 288.5873501300812, 288.74938106536865, 288.9060881137848, 289.08175706863403, 289.27734994888306]","right",290.303393126,"Tue Jul 12 11:52:50 2016",1,"PROV006",59.8953549478,"PSAP_PRO_V","2016_Jul_12_1148","A",NA,20,"fine",0.228394594853799
"36",52,69,"reg",21,0,32,32,78,NA,NA,NA,NA,NA,NA,290.304054022,"Tue Jul 12 11:52:50 2016",0,1.37220001221,"steal",292.20727396,"Tue Jul 12 11:52:51 2016",10,"[292.7914791107178, 292.9749159812927, 293.1305961608887, 293.29727602005005, 293.46440601348877, 293.6247260570526, 293.79376006126404, 293.9530460834503, 294.1260299682617, 294.327791929245]","right",295.330830097,"Tue Jul 12 11:52:55 2016",1,"PROV006",59.8953549478,"PSAP_PRO_V","2016_Jul_12_1148","A",NA,52,"fine",0.316415300172773
"37",56,22,"reg",28,0,33,33,65,NA,NA,NA,NA,NA,NA,295.331491947,"Tue Jul 12 11:52:55 2016",1,1.13625979424,"steal",296.999166965,"Tue Jul 12 11:52:56 2016",10,"[297.38963413238525, 297.5612051486969, 297.7182631492615, 297.87388706207275, 298.03414392471313, 298.2029299736023, 298.3518490791321, 298.512983083725, 298.69676208496094, 298.8806300163269]","left",299.910478115,"Tue Jul 12 11:52:59 2016",1,"PROV006",59.8953549478,"PSAP_PRO_V","2016_Jul_12_1148","A",NA,56,"fine",0.127741986265581
"38",36,89,"reg",22,0,34,34,50,NA,NA,NA,NA,NA,NA,299.911463976,"Tue Jul 12 11:52:59 2016",1,1.75582098961,"steal",302.194875956,"Tue Jul 12 11:53:01 2016",10,"[302.521271944046, 302.7013330459595, 302.8613350391388, 303.0181519985199, 303.1871120929718, 303.35245013237, 303.51270604133606, 303.6812410354614, 303.8580551147461, 304.0374240875244]","left",305.068202019,"Tue Jul 12 11:53:04 2016",1,"PROV006",59.8953549478,"PSAP_PRO_V","2016_Jul_12_1148","A",NA,36,"fine",0.562936547880937
"39",51,17,"reg",34,0,35,35,39,NA,NA,NA,NA,NA,NA,305.068874121,"Tue Jul 12 11:53:04 2016",0,1.07093715668,"steal",306.670861959,"Tue Jul 12 11:53:06 2016",10,"[307.1940050125122, 307.3720819950104, 307.5208361148834, 307.68794298171997, 307.84200501441956, 308.00017499923706, 308.1725001335144, 308.3408501148224, 308.52326107025146, 308.69699215888977]","right",309.714719057,"Tue Jul 12 11:53:09 2016",1,"PROV006",59.8953549478,"PSAP_PRO_V","2016_Jul_12_1148","A",NA,51,"fine",0.0685341125078074
"40",32,3,"reg",29,0,36,36,9,NA,NA,NA,NA,NA,NA,309.715692043,"Tue Jul 12 11:53:09 2016",1,0.720365047455,"steal",310.963643074,"Tue Jul 12 11:53:10 2016",10,"[311.5700161457062, 311.7200050354004, 311.88182497024536, 312.0656969547272, 312.2179000377655, 312.3756070137024, 312.54844403266907, 312.7155749797821, 312.9008090496063, 313.0898311138153]","left",314.104081154,"Tue Jul 12 11:53:13 2016",1,"PROV006",59.8953549478,"PSAP_PRO_V","2016_Jul_12_1148","A",NA,32,"fine",-0.327997185104192
"41",99,28,"reg",44,0,37,37,68,NA,NA,NA,NA,NA,NA,314.104748964,"Tue Jul 12 11:53:13 2016",1,1.26948595047,"steal",315.905557156,"Tue Jul 12 11:53:15 2016",10,"[316.2561869621277, 316.42480206489563, 316.5849549770355, 316.7516579627991, 316.9253480434418, 317.09866213798523, 317.26726603507996, 317.4423129558563, 317.6161539554596, 317.8051691055298]","left",318.834150076,"Tue Jul 12 11:53:18 2016",1,"PROV006",59.8953549478,"PSAP_PRO_V","2016_Jul_12_1148","A",NA,99,"fine",0.238612055122231
"42",65,54,"reg",36,0,38,38,51,NA,NA,NA,NA,NA,NA,318.835124016,"Tue Jul 12 11:53:18 2016",1,0.938807010651,"steal",320.302263021,"Tue Jul 12 11:53:20 2016",10,"[320.6099970340729, 320.77742409706116, 320.9409730434418, 321.0999720096588, 321.2674901485443, 321.4353971481323, 321.6023700237274, 321.76977610588074, 321.9354000091553, 322.12055802345276]","left",323.126544952,"Tue Jul 12 11:53:22 2016",1,"PROV006",59.8953549478,"PSAP_PRO_V","2016_Jul_12_1148","A",NA,65,"fine",-0.0631453473605908
"43",50,75,"reg",28,0,39,39,42,NA,NA,NA,NA,NA,NA,323.127521038,"Tue Jul 12 11:53:22 2016",0,1.50367903709,"steal",325.159173012,"Tue Jul 12 11:53:24 2016",10,"[325.68283104896545, 325.8436031341553, 326.0005121231079, 326.1621379852295, 326.3113350868225, 326.4812481403351, 326.6482939720154, 326.82861709594727, 327.0126299858093, 327.18663811683655]","right",328.200798988,"Tue Jul 12 11:53:27 2016",1,"PROV006",59.8953549478,"PSAP_PRO_V","2016_Jul_12_1148","A",NA,50,"fine",0.407914796563147
"44",9,20,"reg",6,0,40,40,35,NA,NA,NA,NA,NA,NA,328.201472044,"Tue Jul 12 11:53:27 2016",1,1.28860807419,"steal",330.021346092,"Tue Jul 12 11:53:29 2016",10,"[330.4363040924072, 330.6035771369934, 330.770427942276, 330.9444329738617, 331.1167039871216, 331.2898449897766, 331.45705795288086, 331.61739015579224, 331.8015990257263, 331.9747750759125]","left",332.977507114,"Tue Jul 12 11:53:32 2016",1,"PROV006",59.8953549478,"PSAP_PRO_V","2016_Jul_12_1148","A",NA,9,"fine",0.25356262356495
"45",56,11,"reg",37,0,41,41,29,NA,NA,NA,NA,NA,NA,332.978187084,"Tue Jul 12 11:53:32 2016",1,1.55346393585,"steal",335.063357115,"Tue Jul 12 11:53:34 2016",10,"[335.44865798950195, 335.6214280128479, 335.7843999862671, 335.9483151435852, 336.11530900001526, 336.282350063324, 336.45561814308167, 336.6346709728241, 336.8183741569519, 337.000470161438]","left",338.005511045,"Tue Jul 12 11:53:37 2016",1,"PROV006",59.8953549478,"PSAP_PRO_V","2016_Jul_12_1148","A",NA,56,"fine",0.440487234808405
"46",36,20,"reg",27,0,42,42,25,NA,NA,NA,NA,NA,NA,338.006186962,"Tue Jul 12 11:53:37 2016",0,1.08610796928,"steal",339.623275995,"Tue Jul 12 11:53:39 2016",10,"[340.1405770778656, 340.2951350212097, 340.45791506767273, 340.6189570426941, 340.77676796913147, 340.937068939209, 341.0990900993347, 341.259614944458, 341.4334990978241, 341.61031198501587]","right",342.614516973,"Tue Jul 12 11:53:42 2016",1,"PROV006",59.8953549478,"PSAP_PRO_V","2016_Jul_12_1148","A",NA,36,"fine",0.0826006357964992
"47",40,58,"reg",16,0,43,43,80,NA,NA,NA,NA,NA,NA,342.615190029,"Tue Jul 12 11:53:42 2016",0,1.77092909813,"steal",344.917696953,"Tue Jul 12 11:53:44 2016",10,"[345.425626039505, 345.59174704551697, 345.7593741416931, 345.93806505203247, 346.0974659919739, 346.27196311950684, 346.4401230812073, 346.60759115219116, 346.77785205841064, 346.96220898628235]","right",347.992874146,"Tue Jul 12 11:53:47 2016",1,"PROV006",59.8953549478,"PSAP_PRO_V","2016_Jul_12_1148","A",NA,40,"fine",0.571504323064212
"48",52,72,"reg",23,0,44,44,76,NA,NA,NA,NA,NA,NA,347.993546963,"Tue Jul 12 11:53:47 2016",1,1.53747296333,"bank",350.063400984,"Tue Jul 12 11:53:49 2016",10,"[350.8415219783783, 351.01536107063293, 351.1672270298004, 351.32139801979065, 351.48143005371094, 351.6386320590973, 351.81028604507446, 351.98396611213684, 352.1446340084076, 352.3196530342102]","right",353.337671995,"Tue Jul 12 11:53:53 2016",1,"PROV006",59.8953549478,"PSAP_PRO_V","2016_Jul_12_1148","A",NA,23,"fine",0.430140135717905
"49",30,19,"reg",22,0,45,45,23,NA,NA,NA,NA,NA,NA,353.338359118,"Tue Jul 12 11:53:53 2016",0,2.18835377693,"bank",356.057855129,"Tue Jul 12 11:53:55 2016",10,"[356.56049609184265, 356.73361110687256, 356.88282108306885, 357.0466639995575, 357.20089507102966, 357.35361909866333, 357.52938199043274, 357.6812250614166, 357.84657311439514, 358.00890707969666]","left",359.036375046,"Tue Jul 12 11:53:58 2016",1,"PROV006",59.8953549478,"PSAP_PRO_V","2016_Jul_12_1148","A",NA,22,"fine",0.783149561128314
"51",58,77,"reg",26,0,47,47,73,NA,NA,NA,NA,NA,NA,363.493544102,"Tue Jul 12 11:54:03 2016",0,1.95501708984,"steal",365.979404926,"Tue Jul 12 11:54:05 2016",10,"[366.46477007865906, 366.6205461025238, 366.7821409702301, 366.92135095596313, 367.0813159942627, 367.24276900291443, 367.4002230167389, 367.5604169368744, 367.7344241142273, 367.90279603004456]","right",368.924098015,"Tue Jul 12 11:54:08 2016",1,"PROV006",59.8953549478,"PSAP_PRO_V","2016_Jul_12_1148","A",NA,58,"fine",0.67039893500526
"52",35,40,"reg",26,0,48,48,20,NA,NA,NA,NA,NA,NA,368.925096989,"Tue Jul 12 11:54:08 2016",1,1.60352396965,"steal",371.056525946,"Tue Jul 12 11:54:10 2016",10,"[371.64748215675354, 371.82468008995056, 371.9933741092682, 372.1447401046753, 372.3087000846863, 372.46581506729126, 372.60990810394287, 372.7599561214447, 372.9269959926605, 373.11235904693604]","left",374.115890026,"Tue Jul 12 11:54:13 2016",1,"PROV006",59.8953549478,"PSAP_PRO_V","2016_Jul_12_1148","A",NA,35,"fine",0.472203688371122
"53",58,20,"reg",29,0,49,49,62,NA,NA,NA,NA,NA,NA,374.116569042,"Tue Jul 12 11:54:13 2016",0,2.20667505264,"steal",376.853687048,"Tue Jul 12 11:54:16 2016",10,"[377.49469900131226, 377.6701500415802, 377.839154958725, 378.00458908081055, 378.157977104187, 378.3287510871887, 378.49035811424255, 378.6461019515991, 378.8229560852051, 378.99176001548767]","right",379.997378111,"Tue Jul 12 11:54:19 2016",1,"PROV006",59.8953549478,"PSAP_PRO_V","2016_Jul_12_1148","A",NA,58,"fine",0.791486881563616
"54",65,32,"reg",29,0,50,50,71,NA,NA,NA,NA,NA,NA,379.998371124,"Tue Jul 12 11:54:19 2016",0,1.05616903305,"steal",381.582286119,"Tue Jul 12 11:54:21 2016",10,"[382.120726108551, 382.2969501018524, 382.4655930995941, 382.6320581436157, 382.814768075943, 382.9607529640198, 383.12771105766296, 383.2942340373993, 383.46614813804626, 383.63481307029724]","right",384.641037941,"Tue Jul 12 11:54:24 2016",1,"PROV006",59.8953549478,"PSAP_PRO_V","2016_Jul_12_1148","A",NA,65,"fine",0.0546482416505024
"56",23,22,"reg",22,0,52,52,6,NA,NA,NA,NA,NA,NA,389.970000982,"Tue Jul 12 11:54:29 2016",1,0.888783931732,"bank",391.386979103,"Tue Jul 12 11:54:31 2016",10,"[391.969092130661, 392.11802911758423, 392.27137303352356, 392.4349100589752, 392.58577513694763, 392.7434139251709, 392.9029290676117, 393.06998801231384, 393.23864698410034, 393.4056100845337]","right",394.408482075,"Tue Jul 12 11:54:34 2016",1,"PROV006",59.8953549478,"PSAP_PRO_V","2016_Jul_12_1148","A",NA,22,"fine",-0.117901119429498
"58",14,7,"reg",9,0,54,54,34,NA,NA,NA,NA,NA,NA,399.222635031,"Tue Jul 12 11:54:38 2016",0,2.99325489998,"bank",402.743782997,"Tue Jul 12 11:54:42 2016",10,"[403.3269031047821, 403.49937105178833, 403.64602303504944, 403.7994101047516, 403.9677951335907, 404.12682700157166, 404.2953760623932, 404.4681570529938, 404.6350700855255, 404.802109003067]","left",405.836112976,"Tue Jul 12 11:54:45 2016",1,"PROV006",59.8953549478,"PSAP_PRO_V","2016_Jul_12_1148","A",NA,9,"fine",1.09636139062342
"59",43,94,"reg",19,0,55,55,74,NA,NA,NA,NA,NA,NA,405.837109089,"Tue Jul 12 11:54:45 2016",0,1.83772301674,"steal",408.202697992,"Tue Jul 12 11:54:47 2016",10,"[408.7533321380615, 408.92721700668335, 409.0954840183258, 409.2540590763092, 409.4214460849762, 409.5745129585266, 409.74239206314087, 409.91267108917236, 410.0895531177521, 410.26446199417114]","right",411.281008005,"Tue Jul 12 11:54:51 2016",1,"PROV006",59.8953549478,"PSAP_PRO_V","2016_Jul_12_1148","A",NA,43,"fine",0.608527314394576
"60",47,46,"reg",26,0,56,56,46,NA,NA,NA,NA,NA,NA,411.281984091,"Tue Jul 12 11:54:51 2016",0,1.80734419823,"bank",413.617624998,"Tue Jul 12 11:54:53 2016",10,"[414.143541097641, 414.30507016181946, 414.4655101299286, 414.6237630844116, 414.78276014328003, 414.945769071579, 415.1073100566864, 415.27029299736023, 415.437304019928, 415.61351799964905]","left",416.638755083,"Tue Jul 12 11:54:56 2016",1,"PROV006",59.8953549478,"PSAP_PRO_V","2016_Jul_12_1148","A",NA,26,"fine",0.591858473952449
"61",38,5,"reg",28,0,57,57,24,NA,NA,NA,NA,NA,NA,416.639435053,"Tue Jul 12 11:54:56 2016",1,0.839025974274,"steal",418.010746956,"Tue Jul 12 11:54:57 2016",10,"[418.66996693611145, 418.8327190876007, 418.9933969974518, 419.1541850566864, 419.3090751171112, 419.47618293762207, 419.6388440132141, 419.80583596229553, 419.99703001976013, 420.1943700313568]","left",421.199619055,"Tue Jul 12 11:55:00 2016",1,"PROV006",59.8953549478,"PSAP_PRO_V","2016_Jul_12_1148","A",NA,38,"fine",-0.175513614383888
"63",32,73,"reg",24,0,59,59,17,NA,NA,NA,NA,NA,NA,425.959656954,"Tue Jul 12 11:55:05 2016",1,1.97471308708,"bank",428.466268063,"Tue Jul 12 11:55:08 2016",10,"[428.952898979187, 429.10893511772156, 429.27152609825134, 429.43050599098206, 429.59074807167053, 429.76094007492065, 429.9181389808655, 430.0945200920105, 430.2826340198517, 430.48309302330017]","right",431.506983042,"Tue Jul 12 11:55:11 2016",1,"PROV006",59.8953549478,"PSAP_PRO_V","2016_Jul_12_1148","A",NA,24,"fine",0.680423115435476
"64",68,54,"reg",27,0,60,60,81,NA,NA,NA,NA,NA,NA,431.507980108,"Tue Jul 12 11:55:11 2016",0,1.87301301956,"steal",433.910100937,"Tue Jul 12 11:55:13 2016",10,"[434.58289313316345, 434.74343705177307, 434.89541506767273, 435.0625009536743, 435.2307331562042, 435.39310002326965, 435.5268409252167, 435.70585203170776, 435.8609960079193, 436.0465760231018]","right",437.049234152,"Tue Jul 12 11:55:16 2016",1,"PROV006",59.8953549478,"PSAP_PRO_V","2016_Jul_12_1148","A",NA,68,"fine",0.627548374617717
"65",32,87,"reg",18,0,61,61,52,NA,NA,NA,NA,NA,NA,437.049908161,"Tue Jul 12 11:55:16 2016",0,1.55721592903,"steal",439.139029026,"Tue Jul 12 11:55:18 2016",10,"[439.69822216033936, 439.86526012420654, 440.0232729911804, 440.19024300575256, 440.3608341217041, 440.5210349559784, 440.6783699989319, 440.8344340324402, 440.99033999443054, 441.1690630912781]","right",442.196882963,"Tue Jul 12 11:55:21 2016",1,"PROV006",59.8953549478,"PSAP_PRO_V","2016_Jul_12_1148","A",NA,32,"fine",0.442899565978752
"66",22,23,"reg",21,0,62,62,2,NA,NA,NA,NA,NA,NA,442.197886944,"Tue Jul 12 11:55:21 2016",1,1.31987905502,"bank",444.045416117,"Tue Jul 12 11:55:23 2016",10,"[444.46439504623413, 444.62159395217896, 444.78172993659973, 444.943922996521, 445.09308099746704, 445.26448011398315, 445.4217529296875, 445.59420013427734, 445.74873208999634, 445.91212701797485]","right",446.940334082,"Tue Jul 12 11:55:26 2016",1,"PROV006",59.8953549478,"PSAP_PRO_V","2016_Jul_12_1148","A",NA,21,"fine",0.277540107415606
"67",50,49,"reg",29,0,63,63,45,NA,NA,NA,NA,NA,NA,446.941333055,"Tue Jul 12 11:55:26 2016",0,2.10890197754,"steal",449.578508139,"Tue Jul 12 11:55:29 2016",10,"[450.044322013855, 450.2164831161499, 450.3584759235382, 450.51042199134827, 450.6811110973358, 450.81294894218445, 450.97661995887756, 451.12693905830383, 451.2846710681915, 451.4568660259247]","right",452.48367095,"Tue Jul 12 11:55:32 2016",1,"PROV006",59.8953549478,"PSAP_PRO_V","2016_Jul_12_1148","A",NA,50,"fine",0.746167422246745
"68",34,64,"reg",19,0,64,64,43,NA,NA,NA,NA,NA,NA,452.484337091,"Tue Jul 12 11:55:32 2016",1,2.42394995689,"steal",455.437880993,"Tue Jul 12 11:55:35 2016",10,"[455.74359107017517, 455.91182708740234, 456.07063698768616, 456.22103905677795, 456.3840880393982, 456.53474497795105, 456.6953561306, 456.84753799438477, 457.0060410499573, 457.164803981781]","left",458.177610159,"Tue Jul 12 11:55:37 2016",1,"PROV006",59.8953549478,"PSAP_PRO_V","2016_Jul_12_1148","A",NA,34,"fine",0.885398423146601
"69",16,16,"reg",11,0,65,65,31,NA,NA,NA,NA,NA,NA,458.178282022,"Tue Jul 12 11:55:37 2016",0,1.72235298157,"steal",460.43178606,"Tue Jul 12 11:55:40 2016",10,"[460.9307930469513, 461.1013460159302, 461.26097297668457, 461.42267298698425, 461.5738971233368, 461.7341470718384, 461.9015221595764, 462.05752205848694, 462.2354691028595, 462.4045181274414]","right",463.421867132,"Tue Jul 12 11:55:43 2016",1,"PROV006",59.8953549478,"PSAP_PRO_V","2016_Jul_12_1148","A",NA,16,"fine",0.543691368489422
"72",32,11,"reg",21,0,68,68,41,NA,NA,NA,NA,NA,NA,473.560680151,"Tue Jul 12 11:55:53 2016",1,2.69102120399,"steal",476.783174038,"Tue Jul 12 11:55:56 2016",10,"[477.22892713546753, 477.41183710098267, 477.5742471218109, 477.73346304893494, 477.89669394493103, 478.0579330921173, 478.2141799926758, 478.3881039619446, 478.56405305862427, 478.7559051513672]","left",479.776941061,"Tue Jul 12 11:55:59 2016",1,"PROV006",59.8953549478,"PSAP_PRO_V","2016_Jul_12_1148","A",NA,32,"fine",0.989920751308671
"73",70,87,"reg",39,0,69,69,54,NA,NA,NA,NA,NA,NA,479.777925968,"Tue Jul 12 11:55:59 2016",1,1.58857893944,"bank",481.894113064,"Tue Jul 12 11:56:01 2016",10,"[482.25975799560547, 482.42986011505127, 482.60114908218384, 482.761018037796, 482.9180181026459, 483.09677505493164, 483.2367899417877, 483.3957669734955, 483.5691821575165, 483.7495629787445]","right",484.78767395,"Tue Jul 12 11:56:04 2016",1,"PROV006",59.8953549478,"PSAP_PRO_V","2016_Jul_12_1148","A",NA,39,"fine",0.462839867820694
"74",31,1,"reg",28,0,70,70,7,NA,NA,NA,NA,NA,NA,484.788661003,"Tue Jul 12 11:56:04 2016",1,1.58857703209,"steal",486.904718161,"Tue Jul 12 11:56:06 2016",10,"[487.2873730659485, 487.4531011581421, 487.6056971549988, 487.7732629776001, 487.93509006500244, 488.0890140533447, 488.2519500255585, 488.4134840965271, 488.5799059867859, 488.7570071220398]","left",489.764388084,"Tue Jul 12 11:56:09 2016",1,"PROV006",59.8953549478,"PSAP_PRO_V","2016_Jul_12_1148","A",NA,31,"fine",0.462838667155686
"75",53,53,"reg",39,0,71,71,26,NA,NA,NA,NA,NA,NA,489.765387058,"Tue Jul 12 11:56:09 2016",0,1.37381601334,"steal",491.667680025,"Tue Jul 12 11:56:11 2016",10,"[492.1476049423218, 492.31609201431274, 492.4714469909668, 492.6221261024475, 492.7740681171417, 492.9325749874115, 493.101350069046, 493.246484041214, 493.4034640789032, 493.5740420818329]","right",494.60909009,"Tue Jul 12 11:56:14 2016",1,"PROV006",59.8953549478,"PSAP_PRO_V","2016_Jul_12_1148","A",NA,53,"fine",0.317592278967882
"76",58,4,"reg",29,0,72,72,66,NA,NA,NA,NA,NA,NA,494.610069036,"Tue Jul 12 11:56:14 2016",0,1.25338792801,"steal",496.390522003,"Tue Jul 12 11:56:16 2016",10,"[496.85440397262573, 497.0278100967407, 497.183226108551, 497.33182096481323, 497.4938530921936, 497.65551710128784, 497.81242513656616, 497.9783499240875, 498.13598704338074, 498.2956211566925]","right",499.298608065,"Tue Jul 12 11:56:19 2016",1,"PROV006",59.8953549478,"PSAP_PRO_V","2016_Jul_12_1148","A",NA,58,"fine",0.225850227367449
"77",50,43,"reg",25,0,73,73,64,NA,NA,NA,NA,NA,NA,499.299283981,"Tue Jul 12 11:56:19 2016",1,1.15295600891,"steal",500.983690023,"Tue Jul 12 11:56:20 2016",10,"[501.44121408462524, 501.6194009780884, 501.75850915908813, 501.9184789657593, 502.0684950351715, 502.2272551059723, 502.3988039493561, 502.5663001537323, 502.74335193634033, 502.9206790924072]","left",503.925035954,"Tue Jul 12 11:56:23 2016",1,"PROV006",59.8953549478,"PSAP_PRO_V","2016_Jul_12_1148","A",NA,50,"fine",0.142329086968422
"78",41,4,"reg",37,0,74,74,11,NA,NA,NA,NA,NA,NA,503.925707102,"Tue Jul 12 11:56:23 2016",1,1.07076883316,"steal",505.527586937,"Tue Jul 12 11:56:25 2016",10,"[505.86817598342896, 506.0272009372711, 506.20094203948975, 506.36123514175415, 506.53216314315796, 506.70191502571106, 506.9191119670868, 507.11594009399414, 507.2924029827118, 507.48670196533203]","left",508.521422148,"Tue Jul 12 11:56:28 2016",1,"PROV006",59.8953549478,"PSAP_PRO_V","2016_Jul_12_1148","A",NA,41,"fine",0.0683769261142082
"79",32,85,"reg",18,0,75,75,49,NA,NA,NA,NA,NA,NA,508.522416115,"Tue Jul 12 11:56:28 2016",0,1.85392308235,"steal",510.90395999,"Tue Jul 12 11:56:30 2016",10,"[511.67219400405884, 511.83538913726807, 511.9978549480438, 512.158597946167, 512.3255641460419, 512.481281042099, 512.6444230079651, 512.798525094986, 512.9702439308167, 513.1257209777832]","right",514.133494139,"Tue Jul 12 11:56:33 2016",1,"PROV006",59.8953549478,"PSAP_PRO_V","2016_Jul_12_1148","A",NA,32,"fine",0.617303978877428
"80",77,48,"reg",43,0,76,76,47,NA,NA,NA,NA,NA,NA,514.134485006,"Tue Jul 12 11:56:33 2016",0,1.570125103,"steal",516.232311964,"Tue Jul 12 11:56:35 2016",10,"[516.7241849899292, 516.8850541114807, 517.0413911342621, 517.1873550415039, 517.3513700962067, 517.4992151260376, 517.6517169475555, 517.8053390979767, 517.9877600669861, 518.1530830860138]","right",519.160943031,"Tue Jul 12 11:56:38 2016",1,"PROV006",59.8953549478,"PSAP_PRO_V","2016_Jul_12_1148","A",NA,77,"fine",0.451155299625151
"81",10,20,"reg",5,0,77,77,63,NA,NA,NA,NA,NA,NA,519.161950111,"Tue Jul 12 11:56:38 2016",1,2.34041619301,"steal",522.029447079,"Tue Jul 12 11:56:41 2016",10,"[522.7093160152435, 522.8590149879456, 523.0200700759888, 523.1733560562134, 523.3392989635468, 523.5107729434967, 523.6728160381317, 523.831768989563, 523.9890151023865, 524.1740109920502]","left",525.190073013,"Tue Jul 12 11:56:44 2016",1,"PROV006",59.8953549478,"PSAP_PRO_V","2016_Jul_12_1148","A",NA,10,"fine",0.850328773815033
"82",36,8,"reg",24,0,78,78,30,NA,NA,NA,NA,NA,NA,525.19107604,"Tue Jul 12 11:56:44 2016",1,1.07270622253,"steal",526.79226613,"Tue Jul 12 11:56:46 2016",10,"[527.230416059494, 527.3958129882812, 527.5493581295013, 527.715047121048, 527.8904981613159, 528.0605490207672, 528.2275640964508, 528.408196926117, 528.5748739242554, 528.7717070579529]","left",529.800174952,"Tue Jul 12 11:56:49 2016",1,"PROV006",59.8953549478,"PSAP_PRO_V","2016_Jul_12_1148","A",NA,36,"fine",0.0701846354154594
"83",62,13,"reg",41,0,79,79,33,NA,NA,NA,NA,NA,NA,529.801177025,"Tue Jul 12 11:56:49 2016",1,1.80590891838,"steal",532.134529114,"Tue Jul 12 11:56:51 2016",10,"[532.7023711204529, 532.8510489463806, 533.0196559429169, 533.1865661144257, 533.3419060707092, 533.509416103363, 533.6375629901886, 533.8321721553802, 534.022057056427, 534.2220730781555]","left",535.228320122,"Tue Jul 12 11:56:54 2016",1,"PROV006",59.8953549478,"PSAP_PRO_V","2016_Jul_12_1148","A",NA,62,"fine",0.59106402093232
"84",74,24,"reg",33,0,80,80,70,NA,NA,NA,NA,NA,NA,535.229301929,"Tue Jul 12 11:56:54 2016",0,1.32365894318,"steal",537.081259966,"Tue Jul 12 11:56:56 2016",10,"[537.5624809265137, 537.7404091358185, 537.89684009552, 538.0620930194855, 538.2474820613861, 538.3918840885162, 538.5547089576721, 538.7262151241302, 538.9003360271454, 539.0824239253998]","right",540.085349083,"Tue Jul 12 11:56:59 2016",1,"PROV006",59.8953549478,"PSAP_PRO_V","2016_Jul_12_1148","A",NA,74,"fine",0.280399828545825
"85",47,48,"reg",21,0,81,81,69,NA,NA,NA,NA,NA,NA,540.086019993,"Tue Jul 12 11:56:59 2016",1,1.03562402725,"steal",541.653250933,"Tue Jul 12 11:57:01 2016",10,"[542.6750609874725, 542.8556361198425, 543.0057821273804, 543.1630311012268, 543.3067989349365, 543.4583311080933, 543.6032190322876, 543.7575449943542, 543.9093999862671, 544.0666451454163]","left",545.079892159,"Tue Jul 12 11:57:04 2016",1,"PROV006",59.8953549478,"PSAP_PRO_V","2016_Jul_12_1148","A",NA,47,"fine",0.0350041699103794
"87",44,38,"reg",22,0,83,83,59,NA,NA,NA,NA,NA,NA,550.123872995,"Tue Jul 12 11:57:09 2016",0,1.55340504646,"steal",552.208845139,"Tue Jul 12 11:57:11 2016",10,"[552.7178430557251, 552.8769941329956, 553.0354380607605, 553.1945960521698, 553.3629839420319, 553.5130650997162, 553.6517331600189, 553.8074660301208, 553.9543011188507, 554.114725112915]","right",555.120769978,"Tue Jul 12 11:57:14 2016",1,"PROV006",59.8953549478,"PSAP_PRO_V","2016_Jul_12_1148","A",NA,44,"fine",0.440449325652697
"88",47,49,"reg",35,0,84,84,21,NA,NA,NA,NA,NA,NA,555.121758938,"Tue Jul 12 11:57:14 2016",1,1.10311603546,"steal",556.752334118,"Tue Jul 12 11:57:16 2016",10,"[557.1374399662018, 557.3044650554657, 557.4666061401367, 557.6279909610748, 557.795902967453, 557.9628751277924, 558.1396131515503, 558.3070001602173, 558.4736161231995, 558.646152973175]","left",559.677161932,"Tue Jul 12 11:57:19 2016",1,"PROV006",59.8953549478,"PSAP_PRO_V","2016_Jul_12_1148","A",NA,47,"fine",0.0981389346113203
"89",24,12,"reg",23,0,85,85,5,NA,NA,NA,NA,NA,NA,559.67784214,"Tue Jul 12 11:57:19 2016",1,1.83920311928,"steal",562.0480721,"Tue Jul 12 11:57:21 2016",10,"[562.3717620372772, 562.5308041572571, 562.6878390312195, 562.8500101566315, 562.9945011138916, 563.1655550003052, 563.3231620788574, 563.4794120788574, 563.6349530220032, 563.7969479560852]","left",564.824855089,"Tue Jul 12 11:57:24 2016",1,"PROV006",59.8953549478,"PSAP_PRO_V","2016_Jul_12_1148","A",NA,24,"fine",0.609332390463657
"90",54,97,"reg",24,0,86,86,72,NA,NA,NA,NA,NA,NA,564.82585001,"Tue Jul 12 11:57:24 2016",0,1.15455818176,"steal",566.507719994,"Tue Jul 12 11:57:26 2016",10,"[567.0656549930573, 567.2313611507416, 567.3912310600281, 567.5415549278259, 567.7007081508636, 567.8773529529572, 568.025866985321, 568.1943800449371, 568.3460991382599, 568.5172691345215]","right",569.56824708,"Tue Jul 12 11:57:29 2016",1,"PROV006",59.8953549478,"PSAP_PRO_V","2016_Jul_12_1148","A",NA,54,"fine",0.143717744177069
"91",40,54,"reg",36,0,87,87,12,NA,NA,NA,NA,NA,NA,569.569244146,"Tue Jul 12 11:57:29 2016",1,1.05432391167,"steal",571.15101409,"Tue Jul 12 11:57:30 2016",10,"[571.6632671356201, 571.8190190792084, 571.986006975174, 572.1307530403137, 572.2933480739594, 572.4520239830017, 572.6021809577942, 572.7694730758667, 572.9380979537964, 573.1051170825958]","left",574.127843142,"Tue Jul 12 11:57:33 2016",1,"PROV006",59.8953549478,"PSAP_PRO_V","2016_Jul_12_1148","A",NA,40,"fine",0.052899719482057
"92",17,24,"reg",16,0,88,88,4,NA,NA,NA,NA,NA,NA,574.128847122,"Tue Jul 12 11:57:33 2016",1,1.35339188576,"steal",576.010046005,"Tue Jul 12 11:57:35 2016",10,"[576.367495059967, 576.5287981033325, 576.6867611408234, 576.8511490821838, 577.0132801532745, 577.1786229610443, 577.3421800136566, 577.5032360553741, 577.6816170215607, 577.8534369468689]","left",578.88442111,"Tue Jul 12 11:57:38 2016",1,"PROV006",59.8953549478,"PSAP_PRO_V","2016_Jul_12_1148","A",NA,17,"fine",0.302613949349515
"97",38,51,"reg",28,0,0,0,18,NA,NA,NA,NA,NA,NA,159.228012085,"Fri Jul 15 09:42:10 2016",1,3.62626290321,"bank",163.378470182,"Fri Jul 15 09:42:14 2016",11,"[163.92179203033447, 164.04621720314026, 164.18445801734924, 164.3120241165161, 164.44884514808655, 164.58580017089844, 164.70658111572266, 164.84782719612122, 164.96682119369507, 165.0986750125885, 165.2080750465393]","right",166.100540161,"Fri Jul 15 09:42:17 2016",1,"PROV008",59.8344329765,"PSAP_PRO_V","2016_Jul_15_0939","A",NA,28,"fine",1.28820261472636
"98",97,5,"reg",43,0,1,1,67,NA,NA,NA,NA,NA,NA,166.102037191,"Fri Jul 15 09:42:17 2016",1,2.95939397812,"steal",169.593506098,"Fri Jul 15 09:42:20 2016",10,"[169.85861015319824, 169.967698097229, 170.1598870754242, 170.2763330936432, 170.40834021568298, 170.53162503242493, 170.65902400016785, 170.732675075531, 170.91104817390442, 171.04916501045227]","left",172.06440711,"Fri Jul 15 09:42:23 2016",1,"PROV008",59.8344329765,"PSAP_PRO_V","2016_Jul_15_0939","A",NA,97,"fine",1.08498451025284
"99",52,69,"reg",21,0,2,2,78,NA,NA,NA,NA,NA,NA,172.065097094,"Fri Jul 15 09:42:23 2016",1,2.82312607765,"bank",175.419377089,"Fri Jul 15 09:42:26 2016",11,"[175.61941814422607, 175.75976419448853, 175.88844418525696, 176.0204701423645, 176.1386570930481, 176.25761318206787, 176.42115712165833, 176.55457210540771, 176.72190308570862, 176.92234015464783, 177.0788140296936]","right",177.925112009,"Fri Jul 15 09:42:29 2016",1,"PROV008",59.8344329765,"PSAP_PRO_V","2016_Jul_15_0939","A",NA,21,"fine",1.03784480914904
"100",23,0,"zero",54,0,3,3,1,NA,NA,NA,NA,NA,NA,177.926457167,"Fri Jul 15 09:42:29 2016",1,2.37212395668,"bank",180.830860138,"Fri Jul 15 09:42:32 2016",11,"[180.90350604057312, 181.0582389831543, 181.1878261566162, 181.3211669921875, 181.55562210083008, 181.68829798698425, 181.83453702926636, 181.9678192138672, 182.08652710914612, 182.28915405273438, 182.4417040348053]","right",183.302431107,"Fri Jul 15 09:42:34 2016",1,"PROV008",59.8344329765,"PSAP_PRO_V","2016_Jul_15_0939","A",NA,54,"fine",0.863785738066858
"102",44,38,"reg",22,0,5,5,59,NA,NA,NA,NA,NA,NA,187.496801138,"Fri Jul 15 09:42:38 2016",1,2.62262606621,"bank",190.651507139,"Fri Jul 15 09:42:42 2016",10,"[190.80190420150757, 190.94661712646484, 191.103924036026, 191.24348521232605, 191.37572121620178, 191.52131009101868, 191.64054107666016, 191.7705512046814, 191.92101216316223, 192.03190898895264]","right",193.045467138,"Fri Jul 15 09:42:44 2016",1,"PROV008",59.8344329765,"PSAP_PRO_V","2016_Jul_15_0939","A",NA,22,"fine",0.964176131137708
"103",14,7,"reg",9,0,6,6,34,NA,NA,NA,NA,NA,NA,193.046463013,"Fri Jul 15 09:42:44 2016",0,2.54078102112,"bank",196.115038157,"Fri Jul 15 09:42:47 2016",10,"[196.31522417068481, 196.45773720741272, 196.60842418670654, 196.74800419807434, 196.91643404960632, 197.07146215438843, 197.23363399505615, 197.38249921798706, 197.526682138443, 197.6666190624237]","left",198.670962095,"Fri Jul 15 09:42:50 2016",1,"PROV008",59.8344329765,"PSAP_PRO_V","2016_Jul_15_0939","A",NA,9,"fine",0.932471522395426
"104",40,75,"reg",22,0,7,7,53,NA,NA,NA,NA,NA,NA,198.671622992,"Fri Jul 15 09:42:50 2016",0,2.12514591217,"bank",201.328530073,"Fri Jul 15 09:42:52 2016",11,"[201.51863598823547, 201.6796591281891, 201.81454300880432, 201.96003317832947, 202.11635208129883, 202.2597041130066, 202.42671012878418, 202.57835817337036, 202.72866010665894, 202.88100218772888, 203.02948713302612]","left",203.897140026,"Fri Jul 15 09:42:55 2016",1,"PROV008",59.8344329765,"PSAP_PRO_V","2016_Jul_15_0939","A",NA,22,"fine",0.753840464569666
"105",86,17,"reg",43,0,8,8,57,NA,NA,NA,NA,NA,NA,203.89844799,"Fri Jul 15 09:42:55 2016",1,2.18839287758,"steal",206.618827105,"Fri Jul 15 09:42:58 2016",11,"[206.69623708724976, 206.8429651260376, 206.97639513015747, 207.1033000946045, 207.25511407852173, 207.3757791519165, 207.52233219146729, 207.761137008667, 207.8882930278778, 207.9915521144867, 208.22397017478943]","left",209.008074045,"Fri Jul 15 09:43:00 2016",1,"PROV008",59.8344329765,"PSAP_PRO_V","2016_Jul_15_0939","A",NA,86,"fine",0.783167428577854
"106",34,64,"reg",19,0,9,9,43,NA,NA,NA,NA,NA,NA,209.009371042,"Fri Jul 15 09:43:00 2016",0,2.25818920135,"bank",211.799589157,"Fri Jul 15 09:43:03 2016",11,"[211.93201899528503, 212.06529903411865, 212.19909405708313, 212.3506760597229, 212.58326315879822, 212.73909711837769, 212.8836932182312, 213.0324501991272, 213.20990300178528, 213.36001801490784, 213.4703130722046]","left",214.369513988,"Fri Jul 15 09:43:05 2016",1,"PROV008",59.8344329765,"PSAP_PRO_V","2016_Jul_15_0939","A",NA,19,"fine",0.814563253780484
"107",4,6,"reg",3,0,10,10,36,NA,NA,NA,NA,NA,NA,214.370820045,"Fri Jul 15 09:43:05 2016",1,1.47379207611,"bank",216.377351046,"Fri Jul 15 09:43:07 2016",11,"[216.51340317726135, 216.66364002227783, 216.817556142807, 216.968355178833, 217.2945601940155, 217.44875812530518, 217.59381198883057, 217.7160530090332, 217.8323850631714, 217.96648406982422, 218.0466911792755]","right",218.995968103,"Fri Jul 15 09:43:10 2016",1,"PROV008",59.8344329765,"PSAP_PRO_V","2016_Jul_15_0939","A",NA,3,"fine",0.387838722833391
"108",62,13,"reg",41,0,11,11,33,NA,NA,NA,NA,NA,NA,218.997261047,"Fri Jul 15 09:43:10 2016",1,4.52827811241,"bank",224.057649136,"Fri Jul 15 09:43:15 2016",11,"[224.1596131324768, 224.52373003959656, 224.64671206474304, 224.76822900772095, 224.89445614814758, 225.01478600502014, 225.17642617225647, 225.25880002975464, 225.43242502212524, 225.57611107826233, 225.72609901428223]","right",226.578857183,"Fri Jul 15 09:43:17 2016",1,"PROV008",59.8344329765,"PSAP_PRO_V","2016_Jul_15_0939","A",NA,41,"fine",1.51034175959996
"110",47,48,"reg",21,0,13,13,69,NA,NA,NA,NA,NA,NA,230.939429998,"Fri Jul 15 09:43:22 2016",1,2.99023604393,"steal",234.461733103,"Fri Jul 15 09:43:25 2016",12,"[234.59535908699036, 234.73507714271545, 234.88937711715698, 235.03086519241333, 235.20770907402039, 235.36358308792114, 235.51395511627197, 235.63220715522766, 235.78444504737854, 235.95937299728394, 236.05529713630676, 236.15004110336304]","left",236.984423161,"Fri Jul 15 09:43:28 2016",1,"PROV008",59.8344329765,"PSAP_PRO_V","2016_Jul_15_0939","A",NA,47,"fine",1.09535232874484
"111",47,49,"reg",35,0,14,14,21,NA,NA,NA,NA,NA,NA,236.985749006,"Fri Jul 15 09:43:28 2016",0,2.18880391121,"bank",239.70771122,"Fri Jul 15 09:43:31 2016",11,"[239.80770802497864, 239.92649102210999, 240.0751941204071, 240.24044799804688, 240.39781212806702, 240.55770921707153, 240.70288610458374, 240.87842202186584, 241.03170108795166, 241.25953602790833, 241.3991460800171]","left",242.26230216,"Fri Jul 15 09:43:33 2016",1,"PROV008",59.8344329765,"PSAP_PRO_V","2016_Jul_15_0939","A",NA,35,"fine",0.783355235364271
"112",38,5,"reg",28,0,15,15,24,NA,NA,NA,NA,NA,NA,242.263605118,"Fri Jul 15 09:43:33 2016",0,1.59070587158,"steal",244.387023211,"Fri Jul 15 09:43:35 2016",11,"[244.53325605392456, 244.63457417488098, 244.9440221786499, 245.09057307243347, 245.2617290019989, 245.40834307670593, 245.57461500167847, 245.75411701202393, 245.88745999336243, 246.03756713867188, 246.1698501110077]","right",247.038569212,"Fri Jul 15 09:43:38 2016",1,"PROV008",59.8344329765,"PSAP_PRO_V","2016_Jul_15_0939","A",NA,38,"fine",0.464177862107922
"113",41,148,"reg",23,0,16,16,55,NA,NA,NA,NA,NA,NA,247.039915085,"Fri Jul 15 09:43:38 2016",0,2.08814311028,"bank",249.660816193,"Fri Jul 15 09:43:41 2016",12,"[249.72906398773193, 249.87763118743896, 250.03882217407227, 250.16174507141113, 250.30171608924866, 250.45615410804749, 250.61524319648743, 250.81437706947327, 250.98313903808594, 251.1670160293579, 251.31730318069458, 251.47094416618347]","left",252.183457136,"Fri Jul 15 09:43:43 2016",1,"PROV008",59.8344329765,"PSAP_PRO_V","2016_Jul_15_0939","A",NA,23,"fine",0.736275207077805
"114",70,87,"reg",39,0,17,17,54,NA,NA,NA,NA,NA,NA,252.18466115,"Fri Jul 15 09:43:43 2016",0,2.15503787994,"bank",254.872156143,"Fri Jul 15 09:43:46 2016",11,"[254.9900381565094, 255.12945914268494, 255.27913618087769, 255.42295098304749, 255.57456803321838, 255.71429204940796, 255.84678411483765, 256.0137951374054, 256.2614121437073, 256.4318161010742, 256.58302903175354]","left",257.444628,"Fri Jul 15 09:43:48 2016",1,"PROV008",59.8344329765,"PSAP_PRO_V","2016_Jul_15_0939","A",NA,39,"fine",0.767808301099601
"115",9,18,"reg",8,0,18,18,3,NA,NA,NA,NA,NA,NA,257.445919037,"Fri Jul 15 09:43:48 2016",0,1.48886585236,"bank",259.467037201,"Fri Jul 15 09:43:50 2016",11,"[259.59235405921936, 259.74225521087646, 259.903697013855, 260.2394461631775, 260.43360805511475, 260.5672380924225, 260.6875510215759, 260.80740308761597, 260.92814207077026, 261.103147983551, 261.23515605926514]","left",262.104574203,"Fri Jul 15 09:43:53 2016",1,"PROV008",59.8344329765,"PSAP_PRO_V","2016_Jul_15_0939","A",NA,8,"fine",0.398014657205427
"116",32,87,"reg",18,0,19,19,52,NA,NA,NA,NA,NA,NA,262.105857134,"Fri Jul 15 09:43:53 2016",0,3.07512784004,"bank",265.712984085,"Fri Jul 15 09:43:57 2016",11,"[265.813383102417, 265.9302570819855, 266.06358313560486, 266.20660519599915, 266.3665041923523, 266.48132705688477, 266.6245720386505, 266.85356307029724, 266.97108602523804, 267.13499116897583, 267.3666570186615]","left",268.150784016,"Fri Jul 15 09:43:59 2016",1,"PROV008",59.8344329765,"PSAP_PRO_V","2016_Jul_15_0939","A",NA,18,"fine",1.12334647439105
"117",45,46,"reg",18,0,20,20,77,NA,NA,NA,NA,NA,NA,268.152069092,"Fri Jul 15 09:43:59 2016",0,1.87154078484,"steal",270.556777,"Fri Jul 15 09:44:01 2016",11,"[270.6783151626587, 270.8388001918793, 271.0964410305023, 271.2296540737152, 271.52541303634644, 271.7351541519165, 271.89387607574463, 272.0484240055084, 272.20880699157715, 272.3652060031891, 272.54417300224304]","right",273.378172159,"Fri Jul 15 09:44:04 2016",1,"PROV008",59.8344329765,"PSAP_PRO_V","2016_Jul_15_0939","A",NA,45,"fine",0.626762040719067
"118",31,1,"reg",28,0,21,21,7,NA,NA,NA,NA,NA,NA,273.379521132,"Fri Jul 15 09:44:04 2016",0,1.75445699692,"steal",275.667680025,"Fri Jul 15 09:44:07 2016",10,"[275.77664017677307, 275.93406200408936, 276.08711099624634, 276.2171800136566, 276.3676211833954, 276.7351870536804, 276.88696813583374, 277.0391089916229, 277.3379361629486, 277.50496006011963]","right",278.507894039,"Fri Jul 15 09:44:09 2016",1,"PROV008",59.8344329765,"PSAP_PRO_V","2016_Jul_15_0939","A",NA,31,"fine",0.562159405578314
"119",58,20,"reg",29,0,22,22,62,NA,NA,NA,NA,NA,NA,278.508561134,"Fri Jul 15 09:44:09 2016",0,2.52367687225,"steal",281.564328194,"Fri Jul 15 09:44:12 2016",11,"[281.71864318847656, 281.8641700744629, 282.01432514190674, 282.1479630470276, 282.2877140045166, 282.42978715896606, 282.6257140636444, 282.7725419998169, 282.93469309806824, 283.104887008667, 283.2669520378113]","right",284.118138075,"Fri Jul 15 09:44:15 2016",1,"PROV008",59.8344329765,"PSAP_PRO_V","2016_Jul_15_0939","A",NA,58,"fine",0.925716914395484
"120",9,20,"reg",6,0,23,23,35,NA,NA,NA,NA,NA,NA,284.119377136,"Fri Jul 15 09:44:15 2016",0,1.42014408112,"bank",286.0720222,"Fri Jul 15 09:44:17 2016",10,"[286.33003211021423, 286.4739120006561, 286.62319707870483, 286.7838079929352, 286.92925214767456, 287.0737431049347, 287.2302680015564, 287.38099002838135, 287.5414001941681, 287.7191061973572]","left",288.729723215,"Fri Jul 15 09:44:20 2016",1,"PROV008",59.8344329765,"PSAP_PRO_V","2016_Jul_15_0939","A",NA,6,"fine",0.350758332043351
"121",24,72,"reg",18,0,24,24,19,NA,NA,NA,NA,NA,NA,288.730381012,"Fri Jul 15 09:44:20 2016",0,1.45676612854,"bank",290.718858004,"Fri Jul 15 09:44:22 2016",11,"[290.92603302001953, 291.10605907440186, 291.2728340625763, 291.63354110717773, 291.78519320487976, 291.9455180168152, 292.08449721336365, 292.2179820537567, 292.33500719070435, 292.4956991672516, 292.60359621047974]","left",293.503953218,"Fri Jul 15 09:44:24 2016",1,"PROV008",59.8344329765,"PSAP_PRO_V","2016_Jul_15_0939","A",NA,18,"fine",0.376218998570627
"123",32,85,"reg",18,0,26,26,49,NA,NA,NA,NA,NA,NA,297.998875141,"Fri Jul 15 09:44:29 2016",0,2.35901498795,"bank",300.890578985,"Fri Jul 15 09:44:32 2016",11,"[301.12182807922363, 301.28743720054626, 301.4443190097809, 301.5881371498108, 301.76239800453186, 301.9722390174866, 302.32980513572693, 302.4627912044525, 302.57519817352295, 302.6735382080078, 302.8072102069855]","left",303.676503181,"Fri Jul 15 09:44:35 2016",1,"PROV008",59.8344329765,"PSAP_PRO_V","2016_Jul_15_0939","A",NA,18,"fine",0.858244153923795
"124",16,16,"reg",11,0,27,27,31,NA,NA,NA,NA,NA,NA,303.677821159,"Fri Jul 15 09:44:35 2016",0,1.90449881554,"bank",306.114794016,"Fri Jul 15 09:44:37 2016",11,"[306.27067518234253, 306.5417711734772, 306.6930341720581, 306.8495280742645, 306.97328901290894, 307.1514310836792, 307.2538421154022, 307.3898751735687, 307.51716113090515, 307.6842260360718, 307.7890160083771]","left",308.685472012,"Fri Jul 15 09:44:40 2016",1,"PROV008",59.8344329765,"PSAP_PRO_V","2016_Jul_15_0939","A",NA,11,"fine",0.644218885009313
"125",56,24,"reg",28,0,28,28,58,NA,NA,NA,NA,NA,NA,308.686192989,"Fri Jul 15 09:44:40 2016",1,4.69401407242,"steal",313.914098024,"Fri Jul 15 09:44:45 2016",11,"[314.08829402923584, 314.2222330570221, 314.3651931285858, 314.550418138504, 314.7102770805359, 314.86945700645447, 315.0776472091675, 315.2203130722046, 315.4382860660553, 315.58459520339966, 315.7515301704407]","left",316.587413073,"Fri Jul 15 09:44:47 2016",1,"PROV008",59.8344329765,"PSAP_PRO_V","2016_Jul_15_0939","A",NA,56,"fine",1.54628809538343
"126",54,46,"reg",40,0,29,29,22,NA,NA,NA,NA,NA,NA,316.588703156,"Fri Jul 15 09:44:47 2016",0,1.72121787071,"bank",318.843116999,"Fri Jul 15 09:44:50 2016",12,"[319.1193721294403, 319.2759370803833, 319.42001605033875, 319.5495090484619, 319.74482107162476, 319.87832021713257, 319.9800581932068, 320.10077714920044, 320.2177791595459, 320.3811230659485, 320.5653681755066, 320.702091217041]","left",321.396966219,"Fri Jul 15 09:44:52 2016",1,"PROV008",59.8344329765,"PSAP_PRO_V","2016_Jul_15_0939","A",NA,40,"fine",0.543032104632335
"127",65,54,"reg",36,0,30,30,51,NA,NA,NA,NA,NA,NA,321.397791147,"Fri Jul 15 09:44:52 2016",0,4.77905917168,"bank",326.710047007,"Fri Jul 15 09:44:58 2016",12,"[327.0696589946747, 327.2124571800232, 327.32659101486206, 327.44247913360596, 327.61322498321533, 327.9008240699768, 328.03871512413025, 328.2017970085144, 328.3727240562439, 328.49541306495667, 328.59575605392456, 328.7125291824341]","left",329.497704983,"Fri Jul 15 09:45:00 2016",1,"PROV008",59.8344329765,"PSAP_PRO_V","2016_Jul_15_0939","A",NA,36,"fine",1.56424370112222
"128",34,10,"reg",23,0,31,31,32,NA,NA,NA,NA,NA,NA,329.499070168,"Fri Jul 15 09:45:00 2016",1,2.17497491837,"bank",332.207308054,"Fri Jul 15 09:45:03 2016",12,"[332.5313310623169, 332.6890091896057, 332.9900481700897, 333.15547013282776, 333.3890562057495, 333.5410680770874, 333.69096302986145, 333.81457114219666, 334.05886220932007, 334.1924510002136, 334.2928330898285, 334.47637605667114]","right",335.193706989,"Fri Jul 15 09:45:06 2016",1,"PROV008",59.8344329765,"PSAP_PRO_V","2016_Jul_15_0939","A",NA,23,"fine",0.777017132690248
"129",23,22,"reg",22,0,32,32,6,NA,NA,NA,NA,NA,NA,335.194909096,"Fri Jul 15 09:45:06 2016",1,1.47016000748,"bank",337.197682142,"Fri Jul 15 09:45:08 2016",10,"[337.5659861564636, 337.71522998809814, 337.8592481613159, 338.03221321105957, 338.1727361679077, 338.3561360836029, 338.5445590019226, 338.7340831756592, 338.8949270248413, 339.08454513549805]","right",340.088884115,"Fri Jul 15 09:45:11 2016",1,"PROV008",59.8344329765,"PSAP_PRO_V","2016_Jul_15_0939","A",NA,22,"fine",0.385371243492914
"130",65,32,"reg",29,0,33,33,71,NA,NA,NA,NA,NA,NA,340.089550018,"Fri Jul 15 09:45:11 2016",0,4.393846035,"steal",345.014374018,"Fri Jul 15 09:45:16 2016",11,"[345.18721103668213, 345.68883299827576, 345.8336172103882, 345.9672191143036, 346.20113801956177, 346.340056180954, 346.4669871330261, 346.6026360988617, 346.75734400749207, 346.9026110172272, 347.0533170700073]","right",347.904131174,"Fri Jul 15 09:45:19 2016",1,"PROV008",59.8344329765,"PSAP_PRO_V","2016_Jul_15_0939","A",NA,65,"fine",1.48020493352147
"131",48,22,"reg",32,0,34,34,37,NA,NA,NA,NA,NA,NA,347.905427217,"Fri Jul 15 09:45:19 2016",1,1.98800992966,"bank",350.425904989,"Fri Jul 15 09:45:21 2016",11,"[350.7663412094116, 350.92655301094055, 351.07820320129395, 351.27877402305603, 351.46765208244324, 351.6226541996002, 351.76504707336426, 351.91680812835693, 352.0987720489502, 352.35360407829285, 352.5967261791229]","right",353.382516146,"Fri Jul 15 09:45:24 2016",1,"PROV008",59.8344329765,"PSAP_PRO_V","2016_Jul_15_0939","A",NA,32,"fine",0.687134103020701
"132",50,49,"reg",29,0,35,35,45,NA,NA,NA,NA,NA,NA,353.383803129,"Fri Jul 15 09:45:24 2016",0,4.09285783768,"steal",358.009960175,"Fri Jul 15 09:45:29 2016",11,"[358.2268171310425, 358.3924331665039, 358.54436206817627, 358.65962409973145, 358.80423402786255, 358.9614140987396, 359.1021680831909, 359.3111081123352, 359.46821904182434, 359.62839818000793, 359.8119502067566]","right",360.631301165,"Fri Jul 15 09:45:32 2016",1,"PROV008",59.8344329765,"PSAP_PRO_V","2016_Jul_15_0939","A",NA,50,"fine",1.40924346387017
"133",56,11,"reg",37,0,36,36,29,NA,NA,NA,NA,NA,NA,360.632611036,"Fri Jul 15 09:45:32 2016",0,2.27439403534,"steal",363.43881011,"Fri Jul 15 09:45:34 2016",11,"[363.74046421051025, 363.90533804893494, 364.05872917175293, 364.1712520122528, 364.244992017746, 364.3885610103607, 364.5571041107178, 364.7961699962616, 364.9396781921387, 365.12495708465576, 365.31820607185364]","right",366.126352072,"Fri Jul 15 09:45:37 2016",1,"PROV008",59.8344329765,"PSAP_PRO_V","2016_Jul_15_0939","A",NA,56,"fine",0.821713658830989
"134",40,54,"reg",36,0,37,37,12,NA,NA,NA,NA,NA,NA,366.127638102,"Fri Jul 15 09:45:37 2016",1,1.63920211792,"bank",368.299234152,"Fri Jul 15 09:45:39 2016",10,"[368.6477200984955, 368.79911708831787, 368.9647011756897, 369.0514271259308, 369.21563720703125, 369.53436517715454, 369.71060514450073, 369.9067690372467, 370.0506980419159, 370.32466411590576]","right",371.35552001,"Fri Jul 15 09:45:42 2016",1,"PROV008",59.8344329765,"PSAP_PRO_V","2016_Jul_15_0939","A",NA,36,"fine",0.494209609986618
"135",11,2,"reg",10,0,38,38,8,NA,NA,NA,NA,NA,NA,371.356184006,"Fri Jul 15 09:45:42 2016",0,1.30321002007,"bank",373.1910882,"Fri Jul 15 09:45:44 2016",10,"[373.4855070114136, 373.6429982185364, 373.7649631500244, 373.8919620513916, 373.9788281917572, 374.21976709365845, 374.5168490409851, 374.693834066391, 374.80499720573425, 374.9795219898224]","left",375.982523203,"Fri Jul 15 09:45:47 2016",1,"PROV008",59.8344329765,"PSAP_PRO_V","2016_Jul_15_0939","A",NA,10,"fine",0.264830467095968
"136",32,73,"reg",24,0,39,39,17,NA,NA,NA,NA,NA,NA,375.983198166,"Fri Jul 15 09:45:47 2016",1,1.58710312843,"bank",378.101433992,"Fri Jul 15 09:45:49 2016",11,"[378.2205741405487, 378.36245012283325, 378.5199990272522, 378.65384316444397, 378.7221620082855, 378.8602352142334, 379.05909609794617, 379.27670407295227, 379.4221930503845, 379.52785205841064, 379.69889402389526]","right",380.556156158,"Fri Jul 15 09:45:51 2016",1,"PROV008",59.8344329765,"PSAP_PRO_V","2016_Jul_15_0939","A",NA,24,"fine",0.461910422690671
"137",30,8,"reg",20,0,40,40,28,NA,NA,NA,NA,NA,NA,380.557110071,"Fri Jul 15 09:45:51 2016",1,1.52028989792,"bank",382.610953093,"Fri Jul 15 09:45:54 2016",10,"[382.80269408226013, 382.9683220386505, 383.1149652004242, 383.2184181213379, 383.378543138504, 383.53629899024963, 383.7739951610565, 383.91486716270447, 384.13227820396423, 384.27518820762634]","right",385.285404205,"Fri Jul 15 09:45:56 2016",1,"PROV008",59.8344329765,"PSAP_PRO_V","2016_Jul_15_0939","A",NA,20,"fine",0.418901038988786
"138",56,22,"reg",28,0,41,41,65,NA,NA,NA,NA,NA,NA,385.286061049,"Fri Jul 15 09:45:56 2016",1,2.20503902435,"steal",388.022267103,"Fri Jul 15 09:45:59 2016",11,"[388.17282819747925, 388.30829405784607, 388.42319798469543, 388.59044909477234, 388.74045515060425, 388.8923602104187, 389.0356171131134, 389.17486906051636, 389.25957918167114, 389.3917031288147, 389.5487861633301]","left",390.39469409,"Fri Jul 15 09:46:01 2016",1,"PROV008",59.8344329765,"PSAP_PRO_V","2016_Jul_15_0939","A",NA,56,"fine",0.790745206860113
"140",39,18,"reg",26,0,43,43,40,NA,NA,NA,NA,NA,NA,394.971933126,"Fri Jul 15 09:46:06 2016",0,2.50628900528,"bank",398.010807037,"Fri Jul 15 09:46:09 2016",11,"[398.2607591152191, 398.42912912368774, 398.5629870891571, 398.85219502449036, 399.0822870731354, 399.26908707618713, 399.4664890766144, 399.56998205184937, 399.69103813171387, 399.82058119773865, 399.89917516708374]","left",400.833614111,"Fri Jul 15 09:46:12 2016",1,"PROV008",59.8344329765,"PSAP_PRO_V","2016_Jul_15_0939","A",NA,26,"fine",0.918803175155627
"141",15,3,"reg",10,0,44,44,38,NA,NA,NA,NA,NA,NA,400.834902048,"Fri Jul 15 09:46:12 2016",0,0.989184141159,"bank",402.357007027,"Fri Jul 15 09:46:13 2016",11,"[402.62658619880676, 402.7976779937744, 402.9889051914215, 403.12427401542664, 403.27154207229614, 403.406681060791, 403.54962515830994, 403.92442321777344, 404.04301500320435, 404.27524399757385, 404.4104599952698]","left",405.275568008,"Fri Jul 15 09:46:16 2016",1,"PROV008",59.8344329765,"PSAP_PRO_V","2016_Jul_15_0939","A",NA,10,"fine",-0.0108747754498433
"142",86,94,"reg",38,0,45,45,75,NA,NA,NA,NA,NA,NA,405.276525021,"Fri Jul 15 09:46:16 2016",0,1.58752202988,"steal",407.398544073,"Fri Jul 15 09:46:18 2016",11,"[407.6489951610565, 407.79792618751526, 407.9664011001587, 408.11508321762085, 408.31710600852966, 408.4604001045227, 408.611230134964, 408.83486819267273, 408.95681405067444, 409.12368607521057, 409.2692770957947]","right",410.13689518,"Fri Jul 15 09:46:21 2016",1,"PROV008",59.8344329765,"PSAP_PRO_V","2016_Jul_15_0939","A",NA,86,"fine",0.462174328778187
"143",32,11,"reg",21,0,46,46,41,NA,NA,NA,NA,NA,NA,410.138186216,"Fri Jul 15 09:46:21 2016",1,2.62420105934,"bank",413.294275999,"Fri Jul 15 09:46:24 2016",11,"[413.4064509868622, 413.5614800453186, 413.71043705940247, 413.8435881137848, 413.98921608924866, 414.22961711883545, 414.3886661529541, 414.5898721218109, 414.7324001789093, 414.8825480937958, 415.0366849899292]","right",415.89854908,"Fri Jul 15 09:46:27 2016",1,"PROV008",59.8344329765,"PSAP_PRO_V","2016_Jul_15_0939","A",NA,21,"fine",0.964776491370519
"145",99,28,"reg",44,0,48,48,68,NA,NA,NA,NA,NA,NA,420.377635002,"Fri Jul 15 09:46:31 2016",0,1.22325015068,"steal",422.132765055,"Fri Jul 15 09:46:33 2016",11,"[422.3896691799164, 422.52965116500854, 422.68648409843445, 422.8297472000122, 422.9813621044159, 423.14877009391785, 423.2920081615448, 423.431184053421, 423.5647530555725, 423.68298411369324, 423.8266410827637]","right",424.684498072,"Fri Jul 15 09:46:36 2016",1,"PROV008",59.8344329765,"PSAP_PRO_V","2016_Jul_15_0939","A",NA,99,"fine",0.201511374367141
"146",56,111,"reg",31,0,49,49,56,NA,NA,NA,NA,NA,NA,424.685792208,"Fri Jul 15 09:46:36 2016",1,2.35538887978,"bank",427.573306084,"Fri Jul 15 09:46:38 2016",11,"[427.72525000572205, 427.8684170246124, 428.1092531681061, 428.25961112976074, 428.55829405784607, 428.7424910068512, 428.8825840950012, 429.0603051185608, 429.221134185791, 429.3883521556854, 429.54780316352844]","right",430.412801027,"Fri Jul 15 09:46:41 2016",1,"PROV008",59.8344329765,"PSAP_PRO_V","2016_Jul_15_0939","A",NA,31,"fine",0.856705843254278
"147",43,94,"reg",19,0,50,50,74,NA,NA,NA,NA,NA,NA,430.414134026,"Fri Jul 15 09:46:41 2016",0,3.44278216362,"bank",434.389474154,"Fri Jul 15 09:46:45 2016",11,"[434.6396601200104, 434.7884211540222, 434.94042801856995, 435.0905911922455, 435.20940613746643, 435.3565261363983, 435.64729404449463, 435.77410912513733, 435.94624614715576, 436.12612318992615, 436.28183603286743]","left",437.12680006,"Fri Jul 15 09:46:48 2016",1,"PROV008",59.8344329765,"PSAP_PRO_V","2016_Jul_15_0939","A",NA,19,"fine",1.23627991300249
"148",68,54,"reg",27,0,51,51,81,NA,NA,NA,NA,NA,NA,437.127799034,"Fri Jul 15 09:46:48 2016",1,3.57619905472,"steal",441.237253189,"Fri Jul 15 09:46:52 2016",11,"[441.35420513153076, 441.70461106300354, 441.8217701911926, 441.95378613471985, 442.0757460594177, 442.2044610977173, 442.3393909931183, 442.4580011367798, 442.5734860897064, 442.6736271381378, 442.7722210884094]","left",443.674988985,"Fri Jul 15 09:46:55 2016",1,"PROV008",59.8344329765,"PSAP_PRO_V","2016_Jul_15_0939","A",NA,68,"fine",1.27430051983367
"149",22,51,"reg",20,0,52,52,15,NA,NA,NA,NA,NA,NA,443.676315069,"Fri Jul 15 09:46:55 2016",0,2.59070801735,"bank",446.79907012,"Fri Jul 15 09:46:58 2016",11,"[447.1932020187378, 447.3335220813751, 447.48180508613586, 447.60247802734375, 447.8179361820221, 447.96993708610535, 448.1232941150665, 448.36934208869934, 448.5415840148926, 448.69161105155945, 448.8419761657715]","left",449.704491138,"Fri Jul 15 09:47:01 2016",1,"PROV008",59.8344329765,"PSAP_PRO_V","2016_Jul_15_0939","A",NA,20,"fine",0.951931204126032
"150",47,39,"reg",43,0,53,53,14,NA,NA,NA,NA,NA,NA,449.705796003,"Fri Jul 15 09:47:01 2016",1,1.57073307037,"bank",451.808479071,"Fri Jul 15 09:47:03 2016",11,"[452.0038261413574, 452.14544105529785, 452.29429602622986, 452.4429440498352, 452.5711100101471, 452.72169518470764, 452.8840000629425, 453.0512490272522, 453.2978901863098, 453.44636821746826, 453.55660009384155]","right",454.447968006,"Fri Jul 15 09:47:05 2016",1,"PROV008",59.8344329765,"PSAP_PRO_V","2016_Jul_15_0939","A",NA,43,"fine",0.451542434187766
"151",58,4,"reg",29,0,54,54,66,NA,NA,NA,NA,NA,NA,454.449262142,"Fri Jul 15 09:47:05 2016",0,1.53659796715,"steal",456.518173218,"Fri Jul 15 09:47:07 2016",11,"[457.00426506996155, 457.15450501441956, 457.3103702068329, 457.4918282032013, 457.6447820663452, 457.78916215896606, 457.9621260166168, 458.1287941932678, 458.29031109809875, 458.42242908477783, 458.563903093338]","right",459.425212145,"Fri Jul 15 09:47:10 2016",1,"PROV008",59.8344329765,"PSAP_PRO_V","2016_Jul_15_0939","A",NA,58,"fine",0.429570860497249
"152",31,105,"reg",17,0,55,55,48,NA,NA,NA,NA,NA,NA,459.426537991,"Fri Jul 15 09:47:10 2016",1,1.49013209343,"bank",461.448903084,"Fri Jul 15 09:47:12 2016",10,"[461.7143220901489, 461.87001299858093, 462.0133991241455, 462.1637501716614, 462.3374090194702, 462.5248510837555, 462.68284821510315, 462.8097240924835, 462.9499661922455, 463.1228461265564]","right",464.1372962,"Fri Jul 15 09:47:15 2016",1,"PROV008",59.8344329765,"PSAP_PRO_V","2016_Jul_15_0939","A",NA,17,"fine",0.39886476933662
"153",74,24,"reg",33,0,56,56,70,NA,NA,NA,NA,NA,NA,464.13796711,"Fri Jul 15 09:47:15 2016",1,1.63729691505,"steal",466.306236982,"Fri Jul 15 09:47:17 2016",10,"[466.55798411369324, 466.69002199172974, 466.80997109413147, 466.94737100601196, 467.0407781600952, 467.25885820388794, 467.4598801136017, 467.58595514297485, 467.79377913475037, 467.9457311630249]","left",468.967054129,"Fri Jul 15 09:47:20 2016",1,"PROV008",59.8344329765,"PSAP_PRO_V","2016_Jul_15_0939","A",NA,74,"fine",0.493046659492476
"154",47,46,"reg",26,0,57,57,46,NA,NA,NA,NA,NA,NA,468.968042135,"Fri Jul 15 09:47:20 2016",0,4.09303808212,"steal",473.588555098,"Fri Jul 15 09:47:24 2016",10,"[473.8662362098694, 474.0069410800934, 474.1459381580353, 474.29065203666687, 474.4415020942688, 474.5735170841217, 474.7635090351105, 475.074499130249, 475.2083430290222, 475.41005420684814]","right",476.416263103,"Fri Jul 15 09:47:27 2016",1,"PROV008",59.8344329765,"PSAP_PRO_V","2016_Jul_15_0939","A",NA,47,"fine",1.40928750167417
"155",12,0,"zero",80,0,58,58,0,NA,NA,NA,NA,NA,NA,476.417240143,"Fri Jul 15 09:47:27 2016",1,0.752023935318,"bank",477.697170019,"Fri Jul 15 09:47:29 2016",11,"[477.9208199977875, 478.0585391521454, 478.2812612056732, 478.4427502155304, 478.58521699905396, 478.7503252029419, 478.8656539916992, 479.0663421154022, 479.2568380832672, 479.41166400909424, 479.5623071193695]","right",480.436253071,"Fri Jul 15 09:47:31 2016",1,"PROV008",59.8344329765,"PSAP_PRO_V","2016_Jul_15_0939","A",NA,80,"fine",-0.284987126658506
"156",21,5,"reg",14,0,59,59,27,NA,NA,NA,NA,NA,NA,480.437583208,"Fri Jul 15 09:47:31 2016",0,2.25554490089,"bank",483.22548008,"Fri Jul 15 09:47:34 2016",11,"[483.5321362018585, 483.67635202407837, 483.79294300079346, 483.9114520549774, 484.0605480670929, 484.2173070907593, 484.37923407554626, 484.52960109710693, 484.7065341472626, 484.88011503219604, 485.0123360157013]","left",485.881640196,"Fri Jul 15 09:47:37 2016",1,"PROV008",59.8344329765,"PSAP_PRO_V","2016_Jul_15_0939","A",NA,14,"fine",0.813391584957016
"158",30,19,"reg",22,0,61,61,23,NA,NA,NA,NA,NA,NA,491.194168091,"Fri Jul 15 09:47:42 2016",0,1.53704094887,"bank",493.26348114,"Fri Jul 15 09:47:44 2016",12,"[493.5484480857849, 493.71576499938965, 493.86620712280273, 493.98507618904114, 494.13171100616455, 494.2653601169586, 494.37106919288635, 494.4892702102661, 494.6010551452637, 494.7529721260071, 494.86670112609863, 494.95755910873413]","left",495.768483162,"Fri Jul 15 09:47:47 2016",1,"PROV008",59.8344329765,"PSAP_PRO_V","2016_Jul_15_0939","A",NA,22,"fine",0.429859106277037
"159",40,58,"reg",16,0,62,62,80,NA,NA,NA,NA,NA,NA,495.769453049,"Fri Jul 15 09:47:47 2016",0,2.18811297417,"steal",498.491080999,"Fri Jul 15 09:47:49 2016",11,"[498.7545301914215, 498.9116611480713, 499.05070209503174, 499.20914220809937, 499.36088013648987, 499.5113251209259, 499.6837019920349, 499.86720514297485, 500.02766704559326, 500.1681480407715, 500.346626996994]","right",501.180838108,"Fri Jul 15 09:47:52 2016",1,"PROV008",59.8344329765,"PSAP_PRO_V","2016_Jul_15_0939","A",NA,40,"fine",0.783039516759677
"160",54,97,"reg",24,0,63,63,72,NA,NA,NA,NA,NA,NA,501.1821661,"Fri Jul 15 09:47:52 2016",1,2.73973989487,"steal",504.454756021,"Fri Jul 15 09:47:55 2016",10,"[504.74454402923584, 504.8994781970978, 505.0454001426697, 505.17886114120483, 505.66753005981445, 505.80139112472534, 506.0635781288147, 506.2021291255951, 506.4428050518036, 506.6919071674347]","left",507.696392059,"Fri Jul 15 09:47:59 2016",1,"PROV008",59.8344329765,"PSAP_PRO_V","2016_Jul_15_0939","A",NA,54,"fine",1.00786298701439
"161",22,23,"reg",21,0,64,64,2,NA,NA,NA,NA,NA,NA,507.697065115,"Fri Jul 15 09:47:59 2016",0,1.35692405701,"bank",509.585544109,"Fri Jul 15 09:48:00 2016",11,"[510.1061592102051, 510.2728941440582, 510.4276831150055, 510.67384219169617, 510.79530906677246, 510.9021210670471, 511.13819313049316, 511.29773807525635, 511.42533802986145, 511.5521590709686, 511.7150549888611]","left",512.555141211,"Fri Jul 15 09:48:03 2016",1,"PROV008",59.8344329765,"PSAP_PRO_V","2016_Jul_15_0939","A",NA,21,"fine",0.305220415403129
"162",36,89,"reg",22,0,65,65,50,NA,NA,NA,NA,NA,NA,512.556461096,"Fri Jul 15 09:48:03 2016",1,1.10318398476,"bank",514.192911148,"Fri Jul 15 09:48:05 2016",11,"[514.420107126236, 514.5770192146301, 514.6823740005493, 514.8760390281677, 515.0431880950928, 515.2668900489807, 515.4341740608215, 515.5942370891571, 515.7628991603851, 516.1857101917267, 516.3357820510864]","right",517.215081215,"Fri Jul 15 09:48:08 2016",1,"PROV008",59.8344329765,"PSAP_PRO_V","2016_Jul_15_0939","A",NA,22,"fine",0.0982005303139888
"164",35,40,"reg",26,0,67,67,20,NA,NA,NA,NA,NA,NA,522.243804216,"Fri Jul 15 09:48:13 2016",0,2.4253950119,"bank",525.201207161,"Fri Jul 15 09:48:16 2016",10,"[525.5334219932556, 525.6992280483246, 525.9996480941772, 526.1445391178131, 526.4172830581665, 526.5676231384277, 526.7360761165619, 526.8750290870667, 527.2038741111755, 527.4868969917297]","left",528.493578196,"Fri Jul 15 09:48:19 2016",1,"PROV008",59.8344329765,"PSAP_PRO_V","2016_Jul_15_0939","A",NA,26,"fine",0.88599440262922
"165",29,47,"reg",26,0,68,68,16,NA,NA,NA,NA,NA,NA,528.494560003,"Fri Jul 15 09:48:19 2016",0,2.02177095413,"bank",531.045361042,"Fri Jul 15 09:48:22 2016",11,"[531.2181811332703, 531.379298210144, 531.5114521980286, 531.8954989910126, 532.047651052475, 532.2032141685486, 532.3539659976959, 532.5135700702667, 532.7753281593323, 532.8977761268616, 533.0314381122589]","left",533.899389982,"Fri Jul 15 09:48:25 2016",1,"PROV008",59.8344329765,"PSAP_PRO_V","2016_Jul_15_0939","A",NA,26,"fine",0.70397383729275
"166",36,20,"reg",27,0,69,69,25,NA,NA,NA,NA,NA,NA,533.900369167,"Fri Jul 15 09:48:25 2016",1,1.78767895699,"bank",536.221989155,"Fri Jul 15 09:48:27 2016",11,"[536.5623400211334, 536.712818145752, 536.8410561084747, 537.0015590190887, 537.2084159851074, 537.3567261695862, 537.5090050697327, 537.6477460861206, 537.8316440582275, 537.9698121547699, 538.1291210651398]","right",538.994867086,"Fri Jul 15 09:48:30 2016",1,"PROV008",59.8344329765,"PSAP_PRO_V","2016_Jul_15_0939","A",NA,27,"fine",0.580918106373375
"167",72,36,"reg",29,0,70,70,79,NA,NA,NA,NA,NA,NA,538.996112108,"Fri Jul 15 09:48:30 2016",1,1.64053201675,"steal",541.169496059,"Fri Jul 15 09:48:32 2016",11,"[541.3935880661011, 541.5360281467438, 541.6900651454926, 541.8288321495056, 541.985561132431, 542.1289591789246, 542.2874991893768, 542.4254150390625, 542.5794432163239, 542.6967930793762, 542.835648059845]","left",543.721594095,"Fri Jul 15 09:48:35 2016",1,"PROV008",59.8344329765,"PSAP_PRO_V","2016_Jul_15_0939","A",NA,72,"fine",0.495020589686972
"168",58,77,"reg",26,0,71,71,73,NA,NA,NA,NA,NA,NA,543.722871065,"Fri Jul 15 09:48:35 2016",1,4.1107301712,"steal",548.36564517,"Fri Jul 15 09:48:39 2016",11,"[548.4978120326996, 548.6717669963837, 548.8667380809784, 549.0003981590271, 549.1842331886292, 549.3442950248718, 549.5028810501099, 549.6668200492859, 549.8242421150208, 549.9520401954651, 550.1252691745758]","left",550.953680992,"Fri Jul 15 09:48:42 2016",1,"PROV008",59.8344329765,"PSAP_PRO_V","2016_Jul_15_0939","A",NA,58,"fine",1.41360066995524
"169",17,24,"reg",16,0,72,72,4,NA,NA,NA,NA,NA,NA,550.954892159,"Fri Jul 15 09:48:42 2016",1,0.770346164703,"bank",552.257501125,"Fri Jul 15 09:48:43 2016",11,"[552.4220831394196, 552.5676782131195, 552.7233150005341, 552.8904480934143, 553.0476961135864, 553.1925241947174, 553.3261392116547, 553.5915441513062, 553.7203052043915, 553.8679020404816, 553.9543471336365]","right",554.895421982,"Fri Jul 15 09:48:46 2016",1,"PROV008",59.8344329765,"PSAP_PRO_V","2016_Jul_15_0939","A",NA,16,"fine",-0.260915300608922
"170",53,53,"reg",39,0,73,73,26,NA,NA,NA,NA,NA,NA,554.896660089,"Fri Jul 15 09:48:46 2016",1,1.22300004959,"bank",556.652484179,"Fri Jul 15 09:48:48 2016",11,"[556.8003830909729, 556.9606862068176, 557.1160061359406, 557.2832779884338, 557.4402430057526, 557.5953621864319, 557.7523050308228, 557.9298620223999, 558.0969531536102, 558.2587070465088, 558.4368660449982]","right",559.288128138,"Fri Jul 15 09:48:50 2016",1,"PROV008",59.8344329765,"PSAP_PRO_V","2016_Jul_15_0939","A",NA,39,"fine",0.201306897252868
"171",50,75,"reg",28,0,74,74,42,NA,NA,NA,NA,NA,NA,559.289445162,"Fri Jul 15 09:48:50 2016",0,2.18802905083,"bank",562.009708166,"Fri Jul 15 09:48:53 2016",11,"[562.4173531532288, 562.5678651332855, 562.7112901210785, 562.8520970344543, 562.9954831600189, 563.145586013794, 563.2230961322784, 563.4809441566467, 563.6080911159515, 563.7703821659088, 563.9673390388489]","left",564.799871206,"Fri Jul 15 09:48:56 2016",1,"PROV008",59.8344329765,"PSAP_PRO_V","2016_Jul_15_0939","A",NA,28,"fine",0.783001161816199
"172",8,32,"reg",4,0,75,75,61,NA,NA,NA,NA,NA,NA,564.801084042,"Fri Jul 15 09:48:56 2016",0,0.919373035431,"bank",566.252652168,"Fri Jul 15 09:48:57 2016",10,"[566.7602500915527, 566.9045870304108, 567.0489580631256, 567.1777911186218, 567.2659242153168, 567.4542820453644, 567.5449659824371, 567.8005931377411, 567.9671750068665, 568.1297650337219]","left",569.163957119,"Fri Jul 15 09:49:00 2016",1,"PROV008",59.8344329765,"PSAP_PRO_V","2016_Jul_15_0939","A",NA,4,"fine",-0.0840633244814714
"173",20,3,"reg",18,0,76,76,10,NA,NA,NA,NA,NA,NA,569.164921045,"Fri Jul 15 09:49:00 2016",0,2.07200717926,"bank",571.764530182,"Fri Jul 15 09:49:03 2016",11,"[572.0094242095947, 572.1843111515045, 572.3349511623383, 572.4889349937439, 572.6561980247498, 572.8067531585693, 572.9514870643616, 573.1368420124054, 573.3343741893768, 573.4957370758057, 573.6757431030273]","left",574.520672083,"Fri Jul 15 09:49:05 2016",1,"PROV008",59.8344329765,"PSAP_PRO_V","2016_Jul_15_0939","A",NA,18,"fine",0.728517789285056
"174",51,17,"reg",34,0,77,77,39,NA,NA,NA,NA,NA,NA,574.521897078,"Fri Jul 15 09:49:05 2016",0,3.64262390137,"bank",578.696508169,"Fri Jul 15 09:49:10 2016",11,"[579.1199460029602, 579.2801160812378, 579.5306351184845, 579.6656670570374, 579.8310360908508, 579.988382101059, 580.1349351406097, 580.3005452156067, 580.4156470298767, 580.8348960876465, 581.0171020030975]","left",581.836199045,"Fri Jul 15 09:49:13 2016",1,"PROV008",59.8344329765,"PSAP_PRO_V","2016_Jul_15_0939","A",NA,34,"fine",1.29270427398434
"175",41,4,"reg",37,0,78,78,11,NA,NA,NA,NA,NA,NA,581.837490082,"Fri Jul 15 09:49:13 2016",0,1.40644907951,"bank",583.776710033,"Fri Jul 15 09:49:15 2016",11,"[584.0467569828033, 584.2237870693207, 584.3857181072235, 584.5310001373291, 584.7098321914673, 584.8867580890656, 585.0494232177734, 585.2164561748505, 585.3708350658417, 585.5382192134857, 585.711827993393]","left",586.562945127,"Fri Jul 15 09:49:17 2016",1,"PROV008",59.8344329765,"PSAP_PRO_V","2016_Jul_15_0939","A",NA,37,"fine",0.341068144602394
"176",50,43,"reg",25,0,79,79,64,NA,NA,NA,NA,NA,NA,586.564146042,"Fri Jul 15 09:49:17 2016",0,3.9922208786,"steal",591.088476181,"Fri Jul 15 09:49:22 2016",11,"[591.3341410160065, 591.4908730983734, 591.6229062080383, 591.785295009613, 591.9069740772247, 592.0147349834442, 592.161297082901, 592.3149371147156, 592.4784290790558, 592.625027179718, 592.7991650104523]","right",593.627993107,"Fri Jul 15 09:49:25 2016",1,"PROV008",59.8344329765,"PSAP_PRO_V","2016_Jul_15_0939","A",NA,50,"fine",1.38434768722917
"177",36,16,"reg",18,0,80,80,60,NA,NA,NA,NA,NA,NA,593.629269123,"Fri Jul 15 09:49:25 2016",0,5.31221604347,"steal",599.47353816,"Fri Jul 15 09:49:30 2016",12,"[599.7432839870453, 599.9086720943451, 600.0576500892639, 600.1910982131958, 600.3432052135468, 600.4949600696564, 600.6436212062836, 600.7772591114044, 600.926087141037, 601.0781559944153, 601.245187997818, 601.350830078125]","right",602.079364061,"Fri Jul 15 09:49:33 2016",1,"PROV008",59.8344329765,"PSAP_PRO_V","2016_Jul_15_0939","A",NA,36,"fine",1.67000908218106
"178",77,48,"reg",43,0,81,81,47,NA,NA,NA,NA,NA,NA,602.080630064,"Fri Jul 15 09:49:33 2016",0,1.33999490738,"steal",603.953451157,"Fri Jul 15 09:49:35 2016",11,"[604.2498722076416, 604.4016900062561, 604.5521161556244, 604.7008521556854, 604.8513581752777, 605.0349340438843, 605.1999411582947, 605.358864068985, 605.5023901462555, 605.6432731151581, 605.7612130641937]","right",606.671574116,"Fri Jul 15 09:49:38 2016",1,"PROV008",59.8344329765,"PSAP_PRO_V","2016_Jul_15_0939","A",NA,77,"fine",0.292665813492912
"179",32,3,"reg",29,0,82,82,9,NA,NA,NA,NA,NA,NA,606.672533035,"Fri Jul 15 09:49:38 2016",1,0.939199924469,"bank",608.145732164,"Fri Jul 15 09:49:39 2016",11,"[608.3818061351776, 608.527104139328, 608.6939949989319, 608.8385241031647, 609.010195016861, 609.1839621067047, 609.3442380428314, 609.4942691326141, 609.6695461273193, 609.8346431255341, 609.9991610050201]","right",610.848080158,"Fri Jul 15 09:49:42 2016",1,"PROV008",59.8344329765,"PSAP_PRO_V","2016_Jul_15_0939","A",NA,29,"fine",-0.062726910328879
"180",36,8,"reg",24,0,83,83,30,NA,NA,NA,NA,NA,NA,610.849368095,"Fri Jul 15 09:49:42 2016",0,1.83967709541,"bank",613.220975161,"Fri Jul 15 09:49:44 2016",12,"[613.5264220237732, 613.6699731349945, 613.8384101390839, 614.0111820697784, 614.1743969917297, 614.3393840789795, 614.4884240627289, 614.6520462036133, 614.8239121437073, 614.9631659984589, 615.119481086731, 615.2904281616211]","left",615.992386103,"Fri Jul 15 09:49:47 2016",1,"PROV008",59.8344329765,"PSAP_PRO_V","2016_Jul_15_0939","A",NA,24,"fine",0.609590064595437
"181",10,20,"reg",5,0,84,84,63,NA,NA,NA,NA,NA,NA,615.993720055,"Fri Jul 15 09:49:47 2016",1,1.62266302109,"bank",618.148577213,"Fri Jul 15 09:49:49 2016",11,"[618.3042991161346, 618.4703299999237, 618.6152381896973, 618.8474881649017, 619.0146272182465, 619.1312990188599, 619.3108780384064, 619.4892551898956, 619.7067790031433, 619.8400900363922, 620.0072832107544]","right",620.869359016,"Fri Jul 15 09:49:52 2016",1,"PROV008",59.8344329765,"PSAP_PRO_V","2016_Jul_15_0939","A",NA,5,"fine",0.484068639796882
"182",43,70,"reg",24,0,85,85,44,NA,NA,NA,NA,NA,NA,620.870662212,"Fri Jul 15 09:49:52 2016",1,2.92530679703,"bank",624.328227997,"Fri Jul 15 09:49:55 2016",11,"[624.4661610126495, 624.6173181533813, 624.7781040668488, 624.9509060382843, 625.2010431289673, 625.3448340892792, 625.4951372146606, 625.6453301906586, 625.8456871509552, 625.9866621494293, 626.1518130302429]","right",627.014774084,"Fri Jul 15 09:49:58 2016",1,"PROV008",59.8344329765,"PSAP_PRO_V","2016_Jul_15_0939","A",NA,24,"fine",1.07339936305698
"183",15,63,"reg",14,0,86,86,13,NA,NA,NA,NA,NA,NA,627.015773058,"Fri Jul 15 09:49:58 2016",0,0.92117190361,"bank",628.470538139,"Fri Jul 15 09:49:59 2016",12,"[628.842502117157, 628.9813680648804, 629.1263902187347, 629.30490899086, 629.461275100708, 629.6496970653534, 629.8394680023193, 630.0397861003876, 630.201247215271, 630.3363602161407, 630.496208190918, 630.6296591758728]","left",631.35841918,"Fri Jul 15 09:50:02 2016",1,"PROV008",59.8344329765,"PSAP_PRO_V","2016_Jul_15_0939","A",NA,14,"fine",-0.0821086112727709
"184",24,12,"reg",23,0,87,87,5,NA,NA,NA,NA,NA,NA,631.359634161,"Fri Jul 15 09:50:02 2016",0,1.5736811161,"bank",633.466228008,"Fri Jul 15 09:50:04 2016",10,"[633.7139830589294, 633.8645670413971, 634.0210189819336, 634.2154891490936, 634.3672041893005, 634.5099670886993, 634.6558270454407, 634.8385910987854, 635.0776422023773, 635.2559690475464]","left",636.290505171,"Fri Jul 15 09:50:07 2016",1,"PROV008",59.8344329765,"PSAP_PRO_V","2016_Jul_15_0939","A",NA,23,"fine",0.453417534870407
"186",52,72,"reg",23,0,89,89,76,NA,NA,NA,NA,NA,NA,640.562731028,"Fri Jul 15 09:50:11 2016",1,1.83777117729,"bank",642.932622194,"Fri Jul 15 09:50:14 2016",10,"[643.1190900802612, 643.2845771312714, 643.4334781169891, 643.6004071235657, 643.7675170898438, 643.9193830490112, 644.086667060852, 644.2702171802521, 644.486829996109, 644.6390612125397]","right",644.65916419,"Fri Jul 15 09:50:16 2016",1,"PROV008",59.8344329765,"PSAP_PRO_V","2016_Jul_15_0939","A",NA,23,"fine",0.608553520693626
"192",22,23,"reg",21,0,2,2,2,NA,NA,NA,NA,NA,NA,541.429389,"Fri Jul 15 11:07:55 2016",0,4.44444394112,"steal",546.406663895,"Fri Jul 15 11:08:00 2016",12,"[546.5885260105133, 546.7067019939423, 546.812077999115, 546.9072308540344, 547.012631893158, 547.1122419834137, 547.2335619926453, 547.3232479095459, 547.4233660697937, 547.5249180793762, 547.607253074646, 547.7077350616455]","right",548.52656889,"Fri Jul 15 11:08:02 2016",1,"PROV010",59.9061338635,"PSAP_PRO_V","2016_Jul_15_1059","A",NA,22,"fine",1.49165476352971
"193",40,58,"reg",16,0,3,3,80,NA,NA,NA,NA,NA,NA,548.527781963,"Fri Jul 15 11:08:02 2016",0,0.938950061798,"steal",549.999570847,"Fri Jul 15 11:08:03 2016",10,"[550.3072609901428, 550.4341559410095, 550.5378408432007, 550.6654379367828, 550.7484128475189, 550.8319928646088, 550.9308478832245, 551.0477950572968, 551.2147510051727, 551.3389658927917]","right",552.369739056,"Fri Jul 15 11:08:06 2016",1,"PROV010",59.9061338635,"PSAP_PRO_V","2016_Jul_15_1059","A",NA,40,"fine",-0.0629929835118527
"194",40,75,"reg",22,0,4,4,53,NA,NA,NA,NA,NA,NA,552.370419025,"Fri Jul 15 11:08:06 2016",0,0.938992977142,"steal",553.841176987,"Fri Jul 15 11:08:07 2016",12,"[554.1277198791504, 554.2318780422211, 554.3443548679352, 554.5590059757233, 554.672168970108, 554.7741088867188, 554.8670608997345, 554.9628720283508, 555.0578398704529, 555.1566579341888, 555.2567739486694, 555.3290569782257]","right",556.159416914,"Fri Jul 15 11:08:09 2016",1,"PROV010",59.9061338635,"PSAP_PRO_V","2016_Jul_15_1059","A",NA,40,"fine",-0.0629472788838447
"195",54,46,"reg",40,0,5,5,22,NA,NA,NA,NA,NA,NA,556.160640955,"Fri Jul 15 11:08:09 2016",0,1.07137203217,"steal",557.76432395,"Fri Jul 15 11:08:11 2016",13,"[558.1371140480042, 558.2480170726776, 558.3528919219971, 558.4650430679321, 558.553827047348, 558.6473269462585, 558.7707328796387, 558.8993809223175, 559.1051540374756, 559.1984629631042, 559.315367937088, 559.4001569747925, 559.517539024353]","right",560.201432943,"Fri Jul 15 11:08:13 2016",1,"PROV010",59.9061338635,"PSAP_PRO_V","2016_Jul_15_1059","A",NA,54,"fine",0.0689401001199007
"196",23,0,"zero",54,0,6,6,1,NA,NA,NA,NA,NA,NA,560.202759027,"Fri Jul 15 11:08:13 2016",0,1.45357704163,"bank",562.188699961,"Fri Jul 15 11:08:15 2016",12,"[562.4954490661621, 562.6224360466003, 562.7240149974823, 562.8165130615234, 562.942962884903, 563.1308920383453, 563.2348899841309, 563.3136410713196, 563.4259300231934, 563.5109350681305, 563.5909440517426, 563.6976809501648]","left",564.527330875,"Fri Jul 15 11:08:18 2016",1,"PROV010",59.9061338635,"PSAP_PRO_V","2016_Jul_15_1059","A",NA,54,"fine",0.374027443829526
"197",17,24,"reg",16,0,7,7,4,NA,NA,NA,NA,NA,NA,564.528631926,"Fri Jul 15 11:08:18 2016",1,1.12347388268,"steal",566.18490386,"Fri Jul 15 11:08:19 2016",13,"[566.3639500141144, 566.480831861496, 566.5712668895721, 566.6887049674988, 566.7830579280853, 566.871906042099, 566.9553608894348, 567.1608340740204, 567.2657589912415, 567.3604440689087, 567.4558410644531, 567.5512719154358, 567.6679270267487]","left",568.385555029,"Fri Jul 15 11:08:22 2016",1,"PROV010",59.9061338635,"PSAP_PRO_V","2016_Jul_15_1059","A",NA,17,"fine",0.116425565982302
"198",47,48,"reg",21,0,8,8,69,NA,NA,NA,NA,NA,NA,568.386796951,"Fri Jul 15 11:08:22 2016",0,0.822021007538,"steal",569.74161005,"Fri Jul 15 11:08:23 2016",12,"[570.0399038791656, 570.161493062973, 570.2568979263306, 570.4669020175934, 570.5725779533386, 570.6745669841766, 570.7765018939972, 570.8794920444489, 570.9638140201569, 571.0779559612274, 571.2009558677673, 571.3120300769806]","right",572.093451977,"Fri Jul 15 11:08:25 2016",1,"PROV010",59.9061338635,"PSAP_PRO_V","2016_Jul_15_1059","A",NA,47,"fine",-0.19598932763695
"199",23,22,"reg",22,0,9,9,6,NA,NA,NA,NA,NA,NA,572.094681978,"Fri Jul 15 11:08:25 2016",1,1.88808917999,"steal",574.514922857,"Fri Jul 15 11:08:28 2016",12,"[574.6324079036713, 574.7512810230255, 574.8501009941101, 574.9487669467926, 575.0384609699249, 575.1359958648682, 575.2389090061188, 575.3512160778046, 575.4499790668488, 575.5515348911285, 575.6400489807129, 575.7354600429535]","left",576.552411079,"Fri Jul 15 11:08:30 2016",1,"PROV010",59.9061338635,"PSAP_PRO_V","2016_Jul_15_1059","A",NA,23,"fine",0.635565301771959
"200",30,19,"reg",22,0,10,10,23,NA,NA,NA,NA,NA,NA,576.553740978,"Fri Jul 15 11:08:30 2016",1,0.705415964127,"steal",577.792433023,"Fri Jul 15 11:08:31 2016",11,"[577.9277648925781, 578.0400650501251, 578.1420850753784, 578.2573089599609, 578.3722829818726, 578.4729218482971, 578.5670218467712, 578.65642786026, 578.7602379322052, 578.8633749485016, 578.9591679573059]","left",579.876674891,"Fri Jul 15 11:08:33 2016",1,"PROV010",59.9061338635,"PSAP_PRO_V","2016_Jul_15_1059","A",NA,30,"fine",-0.348967630124957
"201",32,3,"reg",29,0,11,11,9,NA,NA,NA,NA,NA,NA,579.877928972,"Fri Jul 15 11:08:33 2016",0,0.655225992203,"steal",581.065998077,"Fri Jul 15 11:08:34 2016",11,"[581.3359160423279, 581.4476749897003, 581.5641758441925, 581.6313080787659, 581.7478539943695, 581.9533789157867, 582.0584239959717, 582.1578788757324, 582.2543048858643, 582.3478980064392, 582.4376120567322]","right",583.350650072,"Fri Jul 15 11:08:37 2016",1,"PROV010",59.9061338635,"PSAP_PRO_V","2016_Jul_15_1059","A",NA,32,"fine",-0.422775076590637
"202",47,46,"reg",26,0,12,12,46,NA,NA,NA,NA,NA,NA,583.351882935,"Fri Jul 15 11:08:37 2016",0,0.601610183716,"steal",584.485704899,"Fri Jul 15 11:08:38 2016",12,"[584.7261559963226, 584.8397588729858, 584.9533200263977, 585.0536830425262, 585.190484046936, 585.3274509906769, 585.4378528594971, 585.5559949874878, 585.6715788841248, 585.7788999080658, 585.8620219230652, 585.9736819267273]","right",586.808093071,"Fri Jul 15 11:08:40 2016",1,"PROV010",59.9061338635,"PSAP_PRO_V","2016_Jul_15_1059","A",NA,47,"fine",-0.508145578770364
"203",58,77,"reg",26,0,13,13,73,NA,NA,NA,NA,NA,NA,586.809311867,"Fri Jul 15 11:08:40 2016",1,1.03932499886,"steal",588.381484985,"Fri Jul 15 11:08:42 2016",11,"[588.5125679969788, 588.6107659339905, 588.7293570041656, 588.8128068447113, 589.012001991272, 589.1355919837952, 589.2398478984833, 589.4401998519897, 589.5466229915619, 589.7472400665283, 589.9824049472809]","left",590.74929595,"Fri Jul 15 11:08:44 2016",1,"PROV010",59.9061338635,"PSAP_PRO_V","2016_Jul_15_1059","A",NA,58,"fine",0.0385714628782344
"204",38,51,"reg",28,0,14,14,18,NA,NA,NA,NA,NA,NA,590.750712872,"Fri Jul 15 11:08:44 2016",0,0.918700933456,"steal",592.202236891,"Fri Jul 15 11:08:45 2016",11,"[592.4873869419098, 592.6227819919586, 592.7197458744049, 592.854866027832, 592.9599189758301, 593.0537910461426, 593.28790807724, 593.4064099788666, 593.4781079292297, 593.5786838531494, 593.678966999054]","right",594.60790801,"Fri Jul 15 11:08:48 2016",1,"PROV010",59.9061338635,"PSAP_PRO_V","2016_Jul_15_1059","A",NA,38,"fine",-0.084794635643406
"205",36,8,"reg",24,0,15,15,30,NA,NA,NA,NA,NA,NA,594.609264851,"Fri Jul 15 11:08:48 2016",0,0.518882989883,"steal",595.661062956,"Fri Jul 15 11:08:49 2016",12,"[595.9283628463745, 596.04532289505, 596.1605758666992, 596.2548489570618, 596.362429857254, 596.4720220565796, 596.5629720687866, 596.7786118984222, 596.8726680278778, 596.9868049621582, 597.0806748867035, 597.1981689929962]","right",598.015234947,"Fri Jul 15 11:08:51 2016",1,"PROV010",59.9061338635,"PSAP_PRO_V","2016_Jul_15_1059","A",NA,36,"fine",-0.656076874253869
"206",34,10,"reg",23,0,16,16,32,NA,NA,NA,NA,NA,NA,598.016469002,"Fri Jul 15 11:08:51 2016",0,0.521953105927,"steal",599.070276022,"Fri Jul 15 11:08:52 2016",12,"[599.3522880077362, 599.4909830093384, 599.6075489521027, 599.7195899486542, 599.8363749980927, 599.9198780059814, 600.0622210502625, 600.1753408908844, 600.270868062973, 600.3587920665741, 600.4712769985199, 600.5544528961182]","right",601.372381926,"Fri Jul 15 11:08:55 2016",1,"PROV010",59.9061338635,"PSAP_PRO_V","2016_Jul_15_1059","A",NA,34,"fine",-0.650177530523828
"207",24,12,"reg",23,0,17,17,5,NA,NA,NA,NA,NA,NA,601.373710871,"Fri Jul 15 11:08:55 2016",0,1.02259111404,"steal",602.929010868,"Fri Jul 15 11:08:56 2016",12,"[603.2103669643402, 603.3365240097046, 603.4425389766693, 603.5491149425507, 603.6633269786835, 603.8542859554291, 603.9938960075378, 604.0546698570251, 604.1609289646149, 604.3125128746033, 604.3848059177399, 604.4964649677277]","right",605.314034939,"Fri Jul 15 11:08:59 2016",1,"PROV010",59.9061338635,"PSAP_PRO_V","2016_Jul_15_1059","A",NA,24,"fine",0.0223397140504155
"208",39,18,"reg",26,0,18,18,40,NA,NA,NA,NA,NA,NA,605.315262079,"Fri Jul 15 11:08:59 2016",0,0.46808886528,"steal",606.316649914,"Fri Jul 15 11:09:00 2016",12,"[606.5901229381561, 606.7105150222778, 606.8347790241241, 607.1615309715271, 607.2544209957123, 607.3582789897919, 607.4693009853363, 607.5849199295044, 607.6456210613251, 607.8032200336456, 607.9356670379639, 608.0707719326019]","right",608.803946018,"Fri Jul 15 11:09:02 2016",1,"PROV010",59.9061338635,"PSAP_PRO_V","2016_Jul_15_1059","A",NA,39,"fine",-0.759097118013077
"209",56,111,"reg",31,0,19,19,56,NA,NA,NA,NA,NA,NA,608.804949999,"Fri Jul 15 11:09:02 2016",0,0.818728923798,"steal",610.157088995,"Fri Jul 15 11:09:03 2016",12,"[610.4587709903717, 610.5928499698639, 610.7813429832458, 610.9102599620819, 611.0156588554382, 611.1197419166565, 611.2255549430847, 611.3258550167084, 611.4461319446564, 611.566349029541, 611.7603490352631, 611.895504951477]","right",612.579530001,"Fri Jul 15 11:09:06 2016",1,"PROV010",59.9061338635,"PSAP_PRO_V","2016_Jul_15_1059","A",NA,56,"fine",-0.200002234290111
"210",32,11,"reg",21,0,20,20,41,NA,NA,NA,NA,NA,NA,612.580860853,"Fri Jul 15 11:09:06 2016",0,0.653887033463,"steal",613.767179012,"Fri Jul 15 11:09:07 2016",12,"[614.0386300086975, 614.1601009368896, 614.2657029628754, 614.3842029571533, 614.4693748950958, 614.5830268859863, 614.6829888820648, 614.8168730735779, 614.9350309371948, 615.1341710090637, 615.2530839443207, 615.369579076767]","right",616.137115002,"Fri Jul 15 11:09:09 2016",1,"PROV010",59.9061338635,"PSAP_PRO_V","2016_Jul_15_1059","A",NA,32,"fine",-0.424820674152729
"211",31,1,"reg",28,0,21,21,7,NA,NA,NA,NA,NA,NA,616.138407946,"Fri Jul 15 11:09:09 2016",0,1.02260398865,"steal",617.693814039,"Fri Jul 15 11:09:11 2016",12,"[617.9510719776154, 618.0802419185638, 618.2018229961395, 618.3259799480438, 618.4307968616486, 618.5427119731903, 618.6249539852142, 618.7251110076904, 619.0775618553162, 619.1777238845825, 619.2874989509583, 619.394660949707]","right",620.178998947,"Fri Jul 15 11:09:13 2016",1,"PROV010",59.9061338635,"PSAP_PRO_V","2016_Jul_15_1059","A",NA,31,"fine",0.0223523041548836
"212",77,48,"reg",43,0,22,22,47,NA,NA,NA,NA,NA,NA,620.180286884,"Fri Jul 15 11:09:13 2016",0,0.668932914734,"steal",621.382463932,"Fri Jul 15 11:09:15 2016",12,"[621.6328139305115, 621.7520909309387, 621.8485388755798, 621.9652009010315, 622.0838408470154, 622.1887018680573, 622.2769510746002, 622.4226930141449, 622.7518649101257, 622.8873958587646, 623.0011079311371, 623.1347160339355]","right",623.903568983,"Fri Jul 15 11:09:17 2016",1,"PROV010",59.9061338635,"PSAP_PRO_V","2016_Jul_15_1059","A",NA,77,"fine",-0.402071500811722
"213",52,69,"reg",21,0,23,23,78,NA,NA,NA,NA,NA,NA,623.904778957,"Fri Jul 15 11:09:17 2016",1,0.889102935791,"steal",625.326845884,"Fri Jul 15 11:09:19 2016",12,"[625.457615852356, 625.5669209957123, 625.6583390235901, 625.7508029937744, 625.8581779003143, 625.9406888484955, 626.0406360626221, 626.1588399410248, 626.2781100273132, 626.3694589138031, 626.4823250770569, 626.5765888690948]","left",627.39438796,"Fri Jul 15 11:09:21 2016",1,"PROV010",59.9061338635,"PSAP_PRO_V","2016_Jul_15_1059","A",NA,52,"fine",-0.117542261879841
"214",32,87,"reg",18,0,24,24,52,NA,NA,NA,NA,NA,NA,627.395676851,"Fri Jul 15 11:09:21 2016",0,0.688617944717,"steal",628.616786957,"Fri Jul 15 11:09:22 2016",11,"[628.8701410293579, 628.9803738594055, 629.0984270572662, 629.2155799865723, 629.2974288463593, 629.414412021637, 629.5343630313873, 629.6150059700012, 629.7220289707184, 629.8153748512268, 629.9173438549042]","right",630.818315029,"Fri Jul 15 11:09:24 2016",1,"PROV010",59.9061338635,"PSAP_PRO_V","2016_Jul_15_1059","A",NA,32,"fine",-0.373068668706254
"215",70,87,"reg",39,0,25,25,54,NA,NA,NA,NA,NA,NA,630.819571018,"Fri Jul 15 11:09:24 2016",1,0.487231969833,"steal",631.838743925,"Fri Jul 15 11:09:25 2016",10,"[631.9732048511505, 632.0867660045624, 632.1902620792389, 632.3038840293884, 632.4045188426971, 632.5213339328766, 632.6061120033264, 632.7119028568268, 632.8066449165344, 632.9222300052643]","left",633.929810047,"Fri Jul 15 11:09:27 2016",1,"PROV010",59.9061338635,"PSAP_PRO_V","2016_Jul_15_1059","A",NA,70,"fine",-0.719014945213455
"216",86,17,"reg",43,0,26,26,57,NA,NA,NA,NA,NA,NA,633.930795908,"Fri Jul 15 11:09:27 2016",1,1.01891613007,"steal",635.477566957,"Fri Jul 15 11:09:29 2016",12,"[635.5673010349274, 635.6778390407562, 635.7963910102844, 635.8964838981628, 635.9986710548401, 636.0955059528351, 636.1989550590515, 636.2974350452423, 636.5479998588562, 636.653226852417, 636.7578818798065, 636.8535900115967]","left",637.681969881,"Fri Jul 15 11:09:31 2016",1,"PROV010",59.9061338635,"PSAP_PRO_V","2016_Jul_15_1059","A",NA,86,"fine",0.0187394447394167
"217",4,6,"reg",3,0,27,27,36,NA,NA,NA,NA,NA,NA,637.682952881,"Fri Jul 15 11:09:31 2016",0,2.60806894302,"bank",640.82474494,"Fri Jul 15 11:09:34 2016",12,"[640.9904999732971, 641.1129848957062, 641.2128539085388, 641.3138699531555, 641.4133570194244, 641.5174369812012, 641.6134459972382, 641.8411390781403, 641.9257609844208, 642.0688819885254, 642.1917250156403, 642.3101580142975]","left",643.077725887,"Fri Jul 15 11:09:36 2016",1,"PROV010",59.9061338635,"PSAP_PRO_V","2016_Jul_15_1059","A",NA,3,"fine",0.958610078922058
"218",51,17,"reg",34,0,28,28,39,NA,NA,NA,NA,NA,NA,643.079055071,"Fri Jul 15 11:09:36 2016",1,0.838718175888,"steal",644.450623035,"Fri Jul 15 11:09:38 2016",11,"[644.5817458629608, 644.7210059165955, 644.8206889629364, 645.0375330448151, 645.292377948761, 645.5218319892883, 645.6157898902893, 645.7154970169067, 645.8162319660187, 645.9104769229889, 645.9999830722809]","left",646.919219017,"Fri Jul 15 11:09:40 2016",1,"PROV010",59.9061338635,"PSAP_PRO_V","2016_Jul_15_1059","A",NA,51,"fine",-0.175880533725462
"219",22,51,"reg",20,0,29,29,15,NA,NA,NA,NA,NA,NA,646.920547009,"Fri Jul 15 11:09:40 2016",1,1.1561768055,"steal",648.609513044,"Fri Jul 15 11:09:42 2016",11,"[648.7055940628052, 648.8057010173798, 648.9092118740082, 649.0228669643402, 649.1179139614105, 649.2295129299164, 649.323723077774, 649.430212020874, 649.5406808853149, 649.6309258937836, 649.742821931839]","left",650.66051507,"Fri Jul 15 11:09:44 2016",1,"PROV010",59.9061338635,"PSAP_PRO_V","2016_Jul_15_1059","A",NA,22,"fine",0.145118704489405
"220",48,22,"reg",32,0,30,30,37,NA,NA,NA,NA,NA,NA,650.661849976,"Fri Jul 15 11:09:44 2016",0,0.854075193405,"steal",652.048048973,"Fri Jul 15 11:09:45 2016",12,"[652.3146028518677, 652.4197020530701, 652.531996011734, 652.6204669475555, 652.7176830768585, 652.8143689632416, 652.9180510044098, 653.0311548709869, 653.1318340301514, 653.2332768440247, 653.3333668708801, 653.4329080581665]","right",654.234827042,"Fri Jul 15 11:09:48 2016",1,"PROV010",59.9061338635,"PSAP_PRO_V","2016_Jul_15_1059","A",NA,48,"fine",-0.157736040586001
"221",11,2,"reg",10,0,31,31,8,NA,NA,NA,NA,NA,NA,654.236063957,"Fri Jul 15 11:09:48 2016",1,1.20294904709,"steal",655.971272945,"Fri Jul 15 11:09:49 2016",11,"[656.0713050365448, 656.1898069381714, 656.2951769828796, 656.3899919986725, 656.6390700340271, 656.7335929870605, 656.8411829471588, 656.9577689170837, 657.1903829574585, 657.3014500141144, 657.477530002594]","left",658.31010294,"Fri Jul 15 11:09:52 2016",1,"PROV010",59.9061338635,"PSAP_PRO_V","2016_Jul_15_1059","A",NA,11,"fine",0.184776081224393
"222",12,0,"zero",80,0,32,32,0,NA,NA,NA,NA,NA,NA,658.311369896,"Fri Jul 15 11:09:52 2016",0,1.00260186195,"bank",659.84642601,"Fri Jul 15 11:09:53 2016",12,"[660.0862948894501, 660.2367489337921, 660.3337490558624, 660.4640328884125, 660.547651052475, 660.6542489528656, 660.7657949924469, 660.8831338882446, 660.9889109134674, 661.0758759975433, 661.2156028747559, 661.3505439758301]","left",662.084300995,"Fri Jul 15 11:09:55 2016",1,"PROV010",59.9061338635,"PSAP_PRO_V","2016_Jul_15_1059","A",NA,80,"fine",0.00259848296702557
"223",54,97,"reg",24,0,33,33,72,NA,NA,NA,NA,NA,NA,662.085598946,"Fri Jul 15 11:09:55 2016",1,0.638332128525,"steal",663.257225037,"Fri Jul 15 11:09:57 2016",12,"[663.3534588813782, 663.4770460128784, 663.5773019790649, 663.6769919395447, 663.7726340293884, 663.8611788749695, 663.9580099582672, 664.0610959529877, 664.1825239658356, 664.2919049263, 664.3960020542145, 664.5073070526123]","left",665.308117867,"Fri Jul 15 11:09:59 2016",1,"PROV010",59.9061338635,"PSAP_PRO_V","2016_Jul_15_1059","A",NA,54,"fine",-0.44889655346548
