stealTrial,harmTrial,trialType,earnTrial,trials_thisRepN,trials_thisTrialN,trials_thisN,trials_thisIndex,instr_response_keys,instr_response_rt,key_resp_2_keys,key_resp_2_rt,introKey_keys,introKey_rt,Trial_Start,Trial_Start_Wall,choiceResponse_keys,choiceResponse_rt,choiceType,Trial_End,Trial_End_Wall,nKeyPress,gamePressTimes,riskDisplaySide,Play_End,Play_End_Wall,session,participant,frameRate,expName,date,type,X,PressTime_1,PressTime_2,PressTime_3,PressTime_4,PressTime_5,PressTime_6,PressTime_7,PressTime_8,PressTime_9,PressTime_10,PressTime_11,PressTime_12,PressTime_13,PressTime_14,PressTime_15,PressTime_16,PressTime_17,PressTime_18,PressTime_1_Diff,PressTime_2_Diff,PressTime_3_Diff,PressTime_4_Diff,PressTime_5_Diff,PressTime_6_Diff,PressTime_7_Diff,PressTime_8_Diff,PressTime_9_Diff,PressTime_10_Diff,PressTime_11_Diff,PressTime_12_Diff,PressTime_13_Diff,PressTime_14_Diff,PressTime_15_Diff,PressTime_16_Diff,PressTime_17_Diff,PressTime_18_Diff,PressTimeDiffMean24,72,reg,18,0,0,0,19,,,,,,,117.9278781,Tue Jul 12 11:49:57 2016,0,4.142543077,steal,122.5942261,Tue Jul 12 11:50:02 2016,10,"[123.21361708641052, 123.38862109184265, 123.54587292671204, 123.7029800415039, 123.86316800117493, 124.03206205368042, 124.19145798683167, 124.36595010757446, 124.55862593650818, 124.74999213218689]",right,125.753334,Tue Jul 12 11:50:05 2016,1,PROV006,59.89535495,PSAP_PRO_V,2016_Jul_12_1148,A,,117.9278781,123.2136171,123.3886211,123.5458729,123.70298,123.863168,124.0320621,124.191458,124.3659501,124.5586259,124.7499921,,,,,,,,,5.285738945,0.175004005,0.157251835,0.157107115,0.16018796,0.168894053,0.159395933,0.174492121,0.192675829,0.191366196,,,,,,,,0.68221139915,63,reg,14,0,1,1,13,,,,,,,125.754154,Tue Jul 12 11:50:05 2016,1,2.924844027,bank,129.209518,Tue Jul 12 11:50:08 2016,10,"[129.74200010299683, 129.9197380542755, 130.0948669910431, 130.23785710334778, 130.3801989555359, 130.54424405097961, 130.7008831501007, 130.88494300842285, 131.0619990825653, 131.2472939491272]",right,132.25335,Tue Jul 12 11:50:11 2016,1,PROV006,59.89535495,PSAP_PRO_V,2016_Jul_12_1148,A,,125.754154,129.7420001,129.9197381,130.094867,130.2378571,130.380199,130.5442441,130.7008832,130.884943,131.0619991,131.2472939,,,,,,,,,3.987846136,0.177737951,0.175128937,0.142990112,0.142341852,0.164045095,0.156639099,0.184059858,0.177056074,0.185294867,,,,,,,,0.5493139988,32,reg,4,0,2,2,61,,,,,,,132.254349,Tue Jul 12 11:50:12 2016,1,3.275544167,steal,136.0573862,Tue Jul 12 11:50:15 2016,10,"[136.47677493095398, 136.6585190296173, 136.81411004066467, 136.97621512413025, 137.12473893165588, 137.28594207763672, 137.44531893730164, 137.6094090938568, 137.77955198287964, 137.96592211723328]",left,138.9813631,Tue Jul 12 11:50:18 2016,1,PROV006,59.89535495,PSAP_PRO_V,2016_Jul_12_1148,A,,132.254349,136.4767749,136.658519,136.81411,136.9762151,137.1247389,137.2859421,137.4453189,137.6094091,137.779552,137.9659221,,,,,,,,,4.222425938,0.181744099,0.155591011,0.162105083,0.148523808,0.161203146,0.15937686,0.164090157,0.170142889,0.186370134,,,,,,,,0.57115731212,0,zero,80,0,3,3,0,,,,,,,138.9820371,Tue Jul 12 11:50:18 2016,1,1.553806067,bank,141.0670311,Tue Jul 12 11:50:20 2016,10,"[141.36702609062195, 141.54067301750183, 141.70101594924927, 141.85176515579224, 141.99252605438232, 142.13718104362488, 142.28735303878784, 142.4469130039215, 142.61381316184998, 142.79764008522034]",right,143.808382,Tue Jul 12 11:50:23 2016,1,PROV006,59.89535495,PSAP_PRO_V,2016_Jul_12_1148,A,,138.9820371,141.3670261,141.540673,141.7010159,141.8517652,141.9925261,142.137181,142.287353,142.446913,142.6138132,142.7976401,,,,,,,,,2.384989024,0.173646927,0.160342932,0.150749207,0.140760899,0.144654989,0.150171995,0.159559965,0.166900158,0.183826923,,,,,,,,0.38156030238,51,reg,28,0,4,4,18,,,,,,,143.809093,Tue Jul 12 11:50:23 2016,0,2.757791996,steal,147.097563,Tue Jul 12 11:50:26 2016,10,"[147.5634639263153, 147.7490589618683, 147.8930950164795, 148.0513801574707, 148.2044551372528, 148.36682200431824, 148.50941514968872, 148.666020154953, 148.8229410648346, 148.9900460243225]",right,150.007865,Tue Jul 12 11:50:29 2016,1,PROV006,59.89535495,PSAP_PRO_V,2016_Jul_12_1148,A,,143.809093,147.5634639,147.749059,147.893095,148.0513802,148.2044551,148.366822,148.5094152,148.6660202,148.8229411,148.990046,,,,,,,,,3.754370927,0.185595036,0.144036055,0.158285141,0.15307498,0.162366867,0.142593145,0.156605005,0.15692091,0.167104959,,,,,,,,0.5180953039,18,reg,8,0,5,5,3,,,,,,,150.008857,Tue Jul 12 11:50:29 2016,0,1.64071703,bank,152.1778669,Tue Jul 12 11:50:31 2016,10,"[152.7246870994568, 152.89352011680603, 153.05254101753235, 153.21193194389343, 153.3762879371643, 153.52646207809448, 153.69493103027344, 153.86172914505005, 154.02924799919128, 154.2113950252533]",left,155.2186739,Tue Jul 12 11:50:34 2016,1,PROV006,59.89535495,PSAP_PRO_V,2016_Jul_12_1148,A,,150.008857,152.7246871,152.8935201,153.052541,153.2119319,153.3762879,153.5264621,153.694931,153.8617291,154.029248,154.211395,,,,,,,,,2.715830087,0.168833017,0.159020901,0.159390926,0.164355993,0.150174141,0.168468952,0.166798115,0.167518854,0.182147026,,,,,,,,0.42025380186,94,reg,38,0,6,6,75,,,,,,,155.21965,Tue Jul 12 11:50:34 2016,1,1.57388401,steal,157.3221371,Tue Jul 12 11:50:37 2016,10,"[157.7019259929657, 157.87509608268738, 158.0139720439911, 158.16955995559692, 158.320228099823, 158.47034406661987, 158.6223340034485, 158.78914213180542, 158.9731321334839, 159.1490831375122]",left,160.162787,Tue Jul 12 11:50:39 2016,1,PROV006,59.89535495,PSAP_PRO_V,2016_Jul_12_1148,A,,155.21965,157.701926,157.8750961,158.013972,158.16956,158.3202281,158.4703441,158.622334,158.7891421,158.9731321,159.1490831,,,,,,,,,2.482275963,0.17317009,0.138875961,0.155587912,0.150668144,0.150115967,0.151989937,0.166808128,0.183990002,0.175951004,,,,,,,,0.39294331145,46,reg,18,0,7,7,77,,,,,,,160.1637771,Tue Jul 12 11:50:39 2016,1,1.737472057,steal,162.429215,Tue Jul 12 11:50:42 2016,10,"[162.7568769454956, 162.92976593971252, 163.08305096626282, 163.25390696525574, 163.42111015319824, 163.58276915550232, 163.74242997169495, 163.91516208648682, 164.08565497398376, 164.2773129940033]",left,165.3071191,Tue Jul 12 11:50:45 2016,1,PROV006,59.89535495,PSAP_PRO_V,2016_Jul_12_1148,A,,160.1637771,162.7568769,162.9297659,163.083051,163.253907,163.4211102,163.5827692,163.74243,163.9151621,164.085655,164.277313,,,,,,,,,2.593099833,0.172888994,0.153285027,0.170855999,0.167203188,0.161659002,0.159660816,0.172732115,0.170492887,0.19165802,,,,,,,,0.41135358843,70,reg,24,0,8,8,44,,,,,,,165.3081021,Tue Jul 12 11:50:45 2016,0,1.872720003,steal,167.7086751,Tue Jul 12 11:50:47 2016,10,"[168.23116397857666, 168.3983039855957, 168.55853009223938, 168.7156081199646, 168.86979913711548, 169.02759099006653, 169.18015003204346, 169.3603320121765, 169.5439989566803, 169.73089408874512]",right,170.7522521,Tue Jul 12 11:50:50 2016,1,PROV006,59.89535495,PSAP_PRO_V,2016_Jul_12_1148,A,,165.3081021,168.231164,168.398304,168.5585301,168.7156081,168.8697991,169.027591,169.18015,169.360332,169.543999,169.7308941,,,,,,,,,2.923061848,0.167140007,0.160226107,0.157078028,0.154191017,0.157791853,0.152559042,0.18018198,0.183666945,0.186895132,,,,,,,,0.44227919631,105,reg,17,0,9,9,48,,,,,,,170.7534831,Tue Jul 12 11:50:50 2016,1,2.724524021,bank,174.0052111,Tue Jul 12 11:50:53 2016,10,"[174.36504697799683, 174.55617094039917, 174.7214379310608, 174.87899208068848, 175.0392210483551, 175.196702003479, 175.3561770915985, 175.5340931415558, 175.74189805984497, 175.95771598815918]",right,176.9653571,Tue Jul 12 11:50:56 2016,1,PROV006,59.89535495,PSAP_PRO_V,2016_Jul_12_1148,A,,170.7534831,174.365047,174.5561709,174.7214379,174.8789921,175.039221,175.196702,175.3561771,175.5340931,175.7418981,175.957716,,,,,,,,,3.611563921,0.191123962,0.165266991,0.15755415,0.160228968,0.157480955,0.159475088,0.17791605,0.207804918,0.215817928,,,,,,,,0.52042329372,36,reg,29,0,10,10,79,,,,,,,176.9663491,Tue Jul 12 11:50:56 2016,0,1.54053092,steal,179.0351009,Tue Jul 12 11:50:58 2016,10,"[179.550222158432, 179.71668004989624, 179.88432002067566, 180.05118894577026, 180.21798014640808, 180.3853199481964, 180.55701303482056, 180.72400903701782, 180.90806102752686, 181.08668303489685]",right,182.0928249,Tue Jul 12 11:51:01 2016,1,PROV006,59.89535495,PSAP_PRO_V,2016_Jul_12_1148,A,,176.9663491,179.5502222,179.7166801,179.88432,180.0511889,180.2179801,180.3853199,180.557013,180.724009,180.908061,181.086683,,,,,,,,,2.583873033,0.166457891,0.167639971,0.166868925,0.166791201,0.167339802,0.171693087,0.166996002,0.184051991,0.178622007,,,,,,,,0.41203339140,75,reg,22,0,11,11,53,,,,,,,182.0938051,Tue Jul 12 11:51:01 2016,0,2.206918001,steal,184.8283501,Tue Jul 12 11:51:04 2016,10,"[185.31092715263367, 185.50091004371643, 185.65156507492065, 185.8351719379425, 186.0122470855713, 186.18997502326965, 186.38154697418213, 186.5482211112976, 186.74111413955688, 186.94759798049927]",right,187.952168,Tue Jul 12 11:51:07 2016,1,PROV006,59.89535495,PSAP_PRO_V,2016_Jul_12_1148,A,,182.0938051,185.3109272,185.50091,185.6515651,185.8351719,186.0122471,186.189975,186.381547,186.5482211,186.7411141,186.947598,,,,,,,,,3.217122078,0.189982891,0.150655031,0.183606863,0.177075148,0.177727938,0.191571951,0.166674137,0.192893028,0.206483841,,,,,,,,0.48537929147,39,reg,43,0,12,12,14,,,,,,,187.952831,Tue Jul 12 11:51:07 2016,1,1.372148037,bank,189.856256,Tue Jul 12 11:51:09 2016,10,"[190.26097011566162, 190.43847513198853, 190.59505915641785, 190.76246809959412, 190.92272400856018, 191.09304809570312, 191.25673604011536, 191.42372608184814, 191.6141541004181, 191.83538699150085]",right,192.849005,Tue Jul 12 11:51:12 2016,1,PROV006,59.89535495,PSAP_PRO_V,2016_Jul_12_1148,A,,187.952831,190.2609701,190.4384751,190.5950592,190.7624681,190.922724,191.0930481,191.256736,191.4237261,191.6141541,191.835387,,,,,,,,,2.308139086,0.177505016,0.156584024,0.167408943,0.160255909,0.170324087,0.163687944,0.166990042,0.190428019,0.221232891,,,,,,,,0.38825559634,10,reg,23,0,13,13,32,,,,,,,192.8499939,Tue Jul 12 11:51:12 2016,0,1.856492043,steal,195.2344661,Tue Jul 12 11:51:14 2016,10,"[195.80119395256042, 195.97329306602478, 196.14128994941711, 196.30240893363953, 196.47450709342957, 196.63492107391357, 196.8203001022339, 196.9871129989624, 197.16350412368774, 197.3600311279297]",right,198.391078,Tue Jul 12 11:51:18 2016,1,PROV006,59.89535495,PSAP_PRO_V,2016_Jul_12_1148,A,,192.8499939,195.801194,195.9732931,196.1412899,196.3024089,196.4745071,196.6349211,196.8203001,196.987113,197.1635041,197.3600311,,,,,,,,,2.951200009,0.172099113,0.167996883,0.161118984,0.17209816,0.16041398,0.185379028,0.166812897,0.176391125,0.196527004,,,,,,,,0.45100371836,16,reg,18,0,14,14,60,,,,,,,198.3917451,Tue Jul 12 11:51:18 2016,0,1.672559023,steal,200.5956061,Tue Jul 12 11:51:20 2016,10,"[201.11249804496765, 201.28501915931702, 201.45137810707092, 201.61225414276123, 201.77940106391907, 201.9405701160431, 202.1037130355835, 202.27096509933472, 202.44863414764404, 202.63417196273804]",right,203.6520391,Tue Jul 12 11:51:23 2016,1,PROV006,59.89535495,PSAP_PRO_V,2016_Jul_12_1148,A,,198.3917451,201.112498,201.2850192,201.4513781,201.6122541,201.7794011,201.9405701,202.103713,202.2709651,202.4486341,202.634172,,,,,,,,,2.720752955,0.172521114,0.166358948,0.160876036,0.167146921,0.161169052,0.16314292,0.167252064,0.177669048,0.185537815,,,,,,,,0.42424268722,51,reg,20,0,15,15,15,,,,,,,203.65271,Tue Jul 12 11:51:23 2016,1,1.572364092,bank,205.756526,Tue Jul 12 11:51:25 2016,10,"[206.2120270729065, 206.38900899887085, 206.55767011642456, 206.7081060409546, 206.8637890815735, 207.03454399108887, 207.19209909439087, 207.35953998565674, 207.53115606307983, 207.74190497398376]",right,208.7468631,Tue Jul 12 11:51:28 2016,1,PROV006,59.89535495,PSAP_PRO_V,2016_Jul_12_1148,A,,203.65271,206.2120271,206.389009,206.5576701,206.708106,206.8637891,207.034544,207.1920991,207.35954,207.5311561,207.741905,,,,,,,,,2.559317112,0.176981926,0.168661118,0.150435925,0.155683041,0.17075491,0.157555103,0.167440891,0.171616077,0.210748911,,,,,,,,0.40891950139,18,reg,26,0,16,16,40,,,,,,,208.747535,Tue Jul 12 11:51:28 2016,0,3.326158047,bank,212.604274,Tue Jul 12 11:51:32 2016,10,"[213.07009196281433, 213.2202970981598, 213.38120794296265, 213.53122305870056, 213.69102907180786, 213.84434700012207, 214.0068700313568, 214.16181206703186, 214.3392391204834, 214.52282810211182]",left,215.530875,Tue Jul 12 11:51:35 2016,1,PROV006,59.89535495,PSAP_PRO_V,2016_Jul_12_1148,A,,208.747535,213.070092,213.2202971,213.3812079,213.5312231,213.6910291,213.844347,214.00687,214.1618121,214.3392391,214.5228281,,,,,,,,,4.322556973,0.150205135,0.160910845,0.150015116,0.159806013,0.153317928,0.162523031,0.154942036,0.177427053,0.183588982,,,,,,,,0.57752931141,148,reg,23,0,17,17,55,,,,,,,215.5318789,Tue Jul 12 11:51:35 2016,0,1.837707043,bank,217.8973269,Tue Jul 12 11:51:37 2016,10,"[218.37100410461426, 218.5379650592804, 218.69837307929993, 218.86721897125244, 219.01938104629517, 219.1862199306488, 219.33985209465027, 219.50039505958557, 219.65059208869934, 219.83410000801086]",left,220.8419991,Tue Jul 12 11:51:40 2016,1,PROV006,59.89535495,PSAP_PRO_V,2016_Jul_12_1148,A,,215.5318789,218.3710041,218.5379651,218.6983731,218.867219,219.019381,219.1862199,219.3398521,219.5003951,219.6505921,219.8341,,,,,,,,,2.839125157,0.166960955,0.16040802,0.168845892,0.152162075,0.166838884,0.153632164,0.160542965,0.150197029,0.183507919,,,,,,,,0.43022210656,111,reg,31,0,18,18,56,,,,,,,220.8429852,Tue Jul 12 11:51:40 2016,0,1.804965019,bank,223.175771,Tue Jul 12 11:51:42 2016,10,"[223.69929194450378, 223.86622714996338, 224.04470896720886, 224.19378805160522, 224.3621311187744, 224.51427006721497, 224.6843900680542, 224.85124015808105, 225.03523898124695, 225.23588705062866]",left,226.268033,Tue Jul 12 11:51:46 2016,1,PROV006,59.89535495,PSAP_PRO_V,2016_Jul_12_1148,A,,220.8429852,223.6992919,223.8662272,224.044709,224.1937881,224.3621311,224.5142701,224.6843901,224.8512402,225.035239,225.2358871,,,,,,,,,2.856306792,0.166935205,0.178481817,0.149079084,0.168343067,0.152138948,0.170120001,0.16685009,0.183998823,0.200648069,,,,,,,,0.4392901956,24,reg,28,0,19,19,58,,,,,,,226.2687061,Tue Jul 12 11:51:46 2016,1,1.13577795,steal,227.9345381,Tue Jul 12 11:51:47 2016,10,"[228.47115993499756, 228.63660502433777, 228.8126139640808, 228.97043108940125, 229.12774300575256, 229.29418802261353, 229.4441180229187, 229.62189197540283, 229.8058159351349, 229.99350714683533]",left,231.010592,Tue Jul 12 11:51:50 2016,1,PROV006,59.89535495,PSAP_PRO_V,2016_Jul_12_1148,A,,226.2687061,228.4711599,228.636605,228.812614,228.9704311,229.127743,229.294188,229.444118,229.621892,229.8058159,229.9935071,,,,,,,,,2.202453852,0.165445089,0.17600894,0.157817125,0.157311916,0.166445017,0.14993,0.177773952,0.18392396,0.187691212,,,,,,,,0.37248010648,22,reg,32,0,20,20,37,,,,,,,231.0112669,Tue Jul 12 11:51:50 2016,0,1.7908988,steal,233.333946,Tue Jul 12 11:51:53 2016,10,"[233.91612315177917, 234.0751371383667, 234.2500660419464, 234.41500210762024, 234.58617305755615, 234.75506210327148, 234.91639804840088, 235.08352613449097, 235.26896405220032, 235.45094108581543]",right,236.4582961,Tue Jul 12 11:51:56 2016,1,PROV006,59.89535495,PSAP_PRO_V,2016_Jul_12_1148,A,,231.0112669,233.9161232,234.0751371,234.250066,234.4150021,234.5861731,234.7550621,234.916398,235.0835261,235.2689641,235.4509411,,,,,,,,,2.904856205,0.159013987,0.174928904,0.164936066,0.17117095,0.168889046,0.161335945,0.167128086,0.185437918,0.181977034,,,,,,,,0.44396741415,3,reg,10,0,21,21,38,,,,,,,236.45929,Tue Jul 12 11:51:56 2016,1,1.002856016,steal,237.9913161,Tue Jul 12 11:51:57 2016,10,"[238.57746005058289, 238.74807596206665, 238.91505908966064, 239.08212614059448, 239.2607569694519, 239.41105008125305, 239.57983803749084, 239.7466459274292, 239.95085406303406, 240.19605708122253]",left,241.2017031,Tue Jul 12 11:52:00 2016,1,PROV006,59.89535495,PSAP_PRO_V,2016_Jul_12_1148,A,,236.45929,238.5774601,238.748076,238.9150591,239.0821261,239.260757,239.4110501,239.579838,239.7466459,239.9508541,240.1960571,,,,,,,,,2.118170023,0.170615911,0.166983128,0.167067051,0.178630829,0.150293112,0.168787956,0.16680789,0.204208136,0.245203018,,,,,,,,0.37367670529,47,reg,26,0,22,22,16,,,,,,,241.2026861,Tue Jul 12 11:52:00 2016,0,1.553745985,steal,243.2847781,Tue Jul 12 11:52:03 2016,10,"[243.82500505447388, 244.00240802764893, 244.1559910774231, 244.31982707977295, 244.47327613830566, 244.62718296051025, 244.7890169620514, 244.96583199501038, 245.13811707496643, 245.3219940662384]",right,246.326824,Tue Jul 12 11:52:06 2016,1,PROV006,59.89535495,PSAP_PRO_V,2016_Jul_12_1148,A,,241.2026861,243.8250051,244.002408,244.1559911,244.3198271,244.4732761,244.627183,244.789017,244.965832,245.1381171,245.3219941,,,,,,,,,2.622318983,0.177402973,0.15358305,0.163836002,0.153449059,0.153906822,0.161834002,0.176815033,0.17228508,0.183876991,,,,,,,,0.41193084,6,reg,3,0,23,23,36,,,,,,,246.327503,Tue Jul 12 11:52:06 2016,0,1.841271877,bank,248.7002211,Tue Jul 12 11:52:08 2016,10,"[249.20427012443542, 249.37131214141846, 249.52251315116882, 249.69788002967834, 249.86510610580444, 250.031907081604, 250.19912004470825, 250.38251900672913, 250.55661702156067, 250.74061393737793]",left,251.7746181,Tue Jul 12 11:52:11 2016,1,PROV006,59.89535495,PSAP_PRO_V,2016_Jul_12_1148,A,,246.327503,249.2042701,249.3713121,249.5225132,249.69788,249.8651061,250.0319071,250.19912,250.382519,250.556617,250.7406139,,,,,,,,,2.876767158,0.167042017,0.15120101,0.175366879,0.167226076,0.166800976,0.167212963,0.183398962,0.174098015,0.183996916,,,,,,,,0.44131109711,2,reg,10,0,24,24,8,,,,,,,251.775609,Tue Jul 12 11:52:11 2016,0,1.537084103,steal,253.8405771,Tue Jul 12 11:52:13 2016,10,"[254.3944230079651, 254.56934309005737, 254.74202013015747, 254.9106800556183, 255.07589197158813, 255.23280310630798, 255.40429401397705, 255.5772659778595, 255.74795794487, 255.92947793006897]",right,256.9325101,Tue Jul 12 11:52:16 2016,1,PROV006,59.89535495,PSAP_PRO_V,2016_Jul_12_1148,A,,251.775609,254.394423,254.5693431,254.7420201,254.9106801,255.075892,255.2328031,255.404294,255.577266,255.7479579,255.9294779,,,,,,,,,2.618813992,0.174920082,0.17267704,0.168659925,0.165211916,0.156911135,0.171490908,0.172971964,0.170691967,0.181519985,,,,,,,,0.41538689123,0,zero,54,0,25,25,1,,,,,,,256.9331951,Tue Jul 12 11:52:16 2016,1,0.972636938,bank,258.43752,Tue Jul 12 11:52:18 2016,10,"[258.9859881401062, 259.15452909469604, 259.3249011039734, 259.491975069046, 259.6526789665222, 259.8210120201111, 259.9880061149597, 260.154993057251, 260.35553193092346, 260.55439496040344]",right,261.55881,Tue Jul 12 11:52:21 2016,1,PROV006,59.89535495,PSAP_PRO_V,2016_Jul_12_1148,A,,256.9331951,258.9859881,259.1545291,259.3249011,259.4919751,259.652679,259.821012,259.9880061,260.1549931,260.3555319,260.554395,,,,,,,,,2.052793026,0.168540955,0.170372009,0.167073965,0.160703897,0.168333054,0.166994095,0.166986942,0.200538874,0.198863029,,,,,,,,0.36211998586,17,reg,43,0,26,26,57,,,,,,,261.559479,Tue Jul 12 11:52:21 2016,0,1.319956064,steal,263.4108391,Tue Jul 12 11:52:23 2016,10,"[263.8299069404602, 263.99466609954834, 264.1561689376831, 264.3126640319824, 264.479385137558, 264.64810514450073, 264.8134801387787, 264.9801139831543, 265.17076897621155, 265.3546550273895]",right,266.36919,Tue Jul 12 11:52:26 2016,1,PROV006,59.89535495,PSAP_PRO_V,2016_Jul_12_1148,A,,261.559479,263.8299069,263.9946661,264.1561689,264.312664,264.4793851,264.6481051,264.8134801,264.980114,265.170769,265.354655,,,,,,,,,2.270427942,0.164759159,0.161502838,0.156495094,0.166721106,0.168720007,0.165374994,0.166633844,0.190654993,0.183886051,,,,,,,,0.37951760354,46,reg,40,0,27,27,22,,,,,,,266.369885,Tue Jul 12 11:52:26 2016,0,1.436517954,bank,268.3376501,Tue Jul 12 11:52:28 2016,10,"[268.92372703552246, 269.10764503479004, 269.25793504714966, 269.4290919303894, 269.5967791080475, 269.7587010860443, 269.92559814453125, 270.0815441608429, 270.2582859992981, 270.44374203681946]",left,271.446933,Tue Jul 12 11:52:31 2016,1,PROV006,59.89535495,PSAP_PRO_V,2016_Jul_12_1148,A,,266.369885,268.923727,269.107645,269.257935,269.4290919,269.5967791,269.7587011,269.9255981,270.0815442,270.258286,270.443742,,,,,,,,,2.553842068,0.183917999,0.150290012,0.171156883,0.167687178,0.161921978,0.166897058,0.155946016,0.176741838,0.185456038,,,,,,,,0.40738570721,5,reg,14,0,28,28,27,,,,,,,271.447608,Tue Jul 12 11:52:31 2016,1,1.056176901,steal,273.0352511,Tue Jul 12 11:52:32 2016,10,"[273.50006008148193, 273.6764860153198, 273.8327970504761, 273.99482798576355, 274.1569969654083, 274.3186240196228, 274.4856240749359, 274.65781903266907, 274.8348340988159, 275.0084240436554]",left,276.026175,Tue Jul 12 11:52:35 2016,1,PROV006,59.89535495,PSAP_PRO_V,2016_Jul_12_1148,A,,271.447608,273.5000601,273.676486,273.8327971,273.994828,274.156997,274.318624,274.4856241,274.657819,274.8348341,275.008424,,,,,,,,,2.052452087,0.176425934,0.156311035,0.162030935,0.16216898,0.161627054,0.167000055,0.172194958,0.177015066,0.173589945,,,,,,,,0.35608160597,5,reg,43,0,29,29,67,,,,,,,276.027169,Tue Jul 12 11:52:35 2016,0,1.019309044,steal,277.574466,Tue Jul 12 11:52:37 2016,10,"[278.05837297439575, 278.2435851097107, 278.39407205581665, 278.5664110183716, 278.72971200942993, 278.900395154953, 279.0672061443329, 279.23413610458374, 279.42050409317017, 279.6184010505676]",right,280.653414,Tue Jul 12 11:52:40 2016,1,PROV006,59.89535495,PSAP_PRO_V,2016_Jul_12_1148,A,,276.027169,278.058373,278.2435851,278.3940721,278.566411,278.729712,278.9003952,279.0672061,279.2341361,279.4205041,279.6184011,,,,,,,,,2.031203985,0.185212135,0.150486946,0.172338963,0.163300991,0.170683146,0.166810989,0.16692996,0.186367989,0.197896957,,,,,,,,0.35912320630,8,reg,20,0,30,30,28,,,,,,,280.654402,Tue Jul 12 11:52:40 2016,1,0.921768904,steal,282.102777,Tue Jul 12 11:52:41 2016,10,"[282.6683919429779, 282.84193205833435, 283.0096490383148, 283.1691770553589, 283.32325506210327, 283.47346806526184, 283.63704109191895, 283.79360699653625, 283.9559769630432, 284.09142112731934]",left,285.112426,Tue Jul 12 11:52:44 2016,1,PROV006,59.89535495,PSAP_PRO_V,2016_Jul_12_1148,A,,280.654402,282.6683919,282.8419321,283.009649,283.1691771,283.3232551,283.4734681,283.6370411,283.793607,283.955977,284.0914211,,,,,,,,,2.013989925,0.173540115,0.16771698,0.159528017,0.154078007,0.150213003,0.163573027,0.156565905,0.162369967,0.135444164,,,,,,,,0.34370191120,3,reg,18,0,31,31,10,,,,,,,285.113421,Tue Jul 12 11:52:44 2016,0,1.256581068,steal,286.8982341,Tue Jul 12 11:52:46 2016,10,"[287.75303506851196, 287.9291400909424, 288.15155696868896, 288.26366806030273, 288.42548298835754, 288.5873501300812, 288.74938106536865, 288.9060881137848, 289.08175706863403, 289.27734994888306]",right,290.3033931,Tue Jul 12 11:52:50 2016,1,PROV006,59.89535495,PSAP_PRO_V,2016_Jul_12_1148,A,,285.113421,287.7530351,287.9291401,288.151557,288.2636681,288.425483,288.5873501,288.7493811,288.9060881,289.0817571,289.2773499,,,,,,,,,2.639614106,0.176105022,0.222416878,0.112111092,0.161814928,0.161867142,0.162030935,0.156707048,0.175668955,0.19559288,,,,,,,,0.41639289952,69,reg,21,0,32,32,78,,,,,,,290.304054,Tue Jul 12 11:52:50 2016,0,1.372200012,steal,292.207274,Tue Jul 12 11:52:51 2016,10,"[292.7914791107178, 292.9749159812927, 293.1305961608887, 293.29727602005005, 293.46440601348877, 293.6247260570526, 293.79376006126404, 293.9530460834503, 294.1260299682617, 294.327791929245]",right,295.3308301,Tue Jul 12 11:52:55 2016,1,PROV006,59.89535495,PSAP_PRO_V,2016_Jul_12_1148,A,,290.304054,292.7914791,292.974916,293.1305962,293.297276,293.464406,293.6247261,293.7937601,293.9530461,294.12603,294.3277919,,,,,,,,,2.487425089,0.183436871,0.15568018,0.166679859,0.167129993,0.160320044,0.169034004,0.159286022,0.172983885,0.201761961,,,,,,,,0.40237379156,22,reg,28,0,33,33,65,,,,,,,295.3314919,Tue Jul 12 11:52:55 2016,1,1.136259794,steal,296.999167,Tue Jul 12 11:52:56 2016,10,"[297.38963413238525, 297.5612051486969, 297.7182631492615, 297.87388706207275, 298.03414392471313, 298.2029299736023, 298.3518490791321, 298.512983083725, 298.69676208496094, 298.8806300163269]",left,299.9104781,Tue Jul 12 11:52:59 2016,1,PROV006,59.89535495,PSAP_PRO_V,2016_Jul_12_1148,A,,295.3314919,297.3896341,297.5612051,297.7182631,297.8738871,298.0341439,298.20293,298.3518491,298.5129831,298.6967621,298.88063,,,,,,,,,2.058142185,0.171571016,0.157058001,0.155623913,0.160256863,0.168786049,0.148919106,0.161134005,0.183779001,0.183867931,,,,,,,,0.35491380736,89,reg,22,0,34,34,50,,,,,,,299.911464,Tue Jul 12 11:52:59 2016,1,1.75582099,steal,302.194876,Tue Jul 12 11:53:01 2016,10,"[302.521271944046, 302.7013330459595, 302.8613350391388, 303.0181519985199, 303.1871120929718, 303.35245013237, 303.51270604133606, 303.6812410354614, 303.8580551147461, 304.0374240875244]",left,305.068202,Tue Jul 12 11:53:04 2016,1,PROV006,59.89535495,PSAP_PRO_V,2016_Jul_12_1148,A,,299.911464,302.5212719,302.701333,302.861335,303.018152,303.1871121,303.3524501,303.512706,303.681241,303.8580551,304.0374241,,,,,,,,,2.609807968,0.180061102,0.160001993,0.156816959,0.168960094,0.165338039,0.160255909,0.168534994,0.176814079,0.179368973,,,,,,,,0.41259601151,17,reg,34,0,35,35,39,,,,,,,305.0688741,Tue Jul 12 11:53:04 2016,0,1.070937157,steal,306.670862,Tue Jul 12 11:53:06 2016,10,"[307.1940050125122, 307.3720819950104, 307.5208361148834, 307.68794298171997, 307.84200501441956, 308.00017499923706, 308.1725001335144, 308.3408501148224, 308.52326107025146, 308.69699215888977]",right,309.7147191,Tue Jul 12 11:53:09 2016,1,PROV006,59.89535495,PSAP_PRO_V,2016_Jul_12_1148,A,,305.0688741,307.194005,307.372082,307.5208361,307.687943,307.842005,308.000175,308.1725001,308.3408501,308.5232611,308.6969922,,,,,,,,,2.125130892,0.178076982,0.14875412,0.167106867,0.154062033,0.158169985,0.172325134,0.168349981,0.182410955,0.173731089,,,,,,,,0.36281180432,3,reg,29,0,36,36,9,,,,,,,309.715692,Tue Jul 12 11:53:09 2016,1,0.720365047,steal,310.9636431,Tue Jul 12 11:53:10 2016,10,"[311.5700161457062, 311.7200050354004, 311.88182497024536, 312.0656969547272, 312.2179000377655, 312.3756070137024, 312.54844403266907, 312.7155749797821, 312.9008090496063, 313.0898311138153]",left,314.1040812,Tue Jul 12 11:53:13 2016,1,PROV006,59.89535495,PSAP_PRO_V,2016_Jul_12_1148,A,,309.715692,311.5700161,311.720005,311.881825,312.065697,312.2179,312.375607,312.548444,312.715575,312.9008091,313.0898311,,,,,,,,,1.854324103,0.14998889,0.161819935,0.183871984,0.152203083,0.157706976,0.172837019,0.167130947,0.18523407,0.189022064,,,,,,,,0.33741390799,28,reg,44,0,37,37,68,,,,,,,314.104749,Tue Jul 12 11:53:13 2016,1,1.26948595,steal,315.9055572,Tue Jul 12 11:53:15 2016,10,"[316.2561869621277, 316.42480206489563, 316.5849549770355, 316.7516579627991, 316.9253480434418, 317.09866213798523, 317.26726603507996, 317.4423129558563, 317.6161539554596, 317.8051691055298]",left,318.8341501,Tue Jul 12 11:53:18 2016,1,PROV006,59.89535495,PSAP_PRO_V,2016_Jul_12_1148,A,,314.104749,316.256187,316.4248021,316.584955,316.751658,316.925348,317.0986621,317.267266,317.442313,317.616154,317.8051691,,,,,,,,,2.151437998,0.168615103,0.160152912,0.166702986,0.173690081,0.173314095,0.168603897,0.175046921,0.173841,0.18901515,,,,,,,,0.37004201465,54,reg,36,0,38,38,51,,,,,,,318.835124,Tue Jul 12 11:53:18 2016,1,0.938807011,steal,320.302263,Tue Jul 12 11:53:20 2016,10,"[320.6099970340729, 320.77742409706116, 320.9409730434418, 321.0999720096588, 321.2674901485443, 321.4353971481323, 321.6023700237274, 321.76977610588074, 321.9354000091553, 322.12055802345276]",left,323.126545,Tue Jul 12 11:53:22 2016,1,PROV006,59.89535495,PSAP_PRO_V,2016_Jul_12_1148,A,,318.835124,320.609997,320.7774241,320.940973,321.099972,321.2674901,321.4353971,321.60237,321.7697761,321.9354,322.120558,,,,,,,,,1.774873018,0.167427063,0.163548946,0.158998966,0.167518139,0.167907,0.166972876,0.167406082,0.165623903,0.185158014,,,,,,,,0.32854340150,75,reg,28,0,39,39,42,,,,,,,323.127521,Tue Jul 12 11:53:22 2016,0,1.503679037,steal,325.159173,Tue Jul 12 11:53:24 2016,10,"[325.68283104896545, 325.8436031341553, 326.0005121231079, 326.1621379852295, 326.3113350868225, 326.4812481403351, 326.6482939720154, 326.82861709594727, 327.0126299858093, 327.18663811683655]",right,328.200799,Tue Jul 12 11:53:27 2016,1,PROV006,59.89535495,PSAP_PRO_V,2016_Jul_12_1148,A,,323.127521,325.682831,325.8436031,326.0005121,326.162138,326.3113351,326.4812481,326.648294,326.8286171,327.01263,327.1866381,,,,,,,,,2.555310011,0.160772085,0.156908989,0.161625862,0.149197102,0.169913054,0.167045832,0.180323124,0.18401289,0.174008131,,,,,,,,0.4059117089,20,reg,6,0,40,40,35,,,,,,,328.201472,Tue Jul 12 11:53:27 2016,1,1.288608074,steal,330.0213461,Tue Jul 12 11:53:29 2016,10,"[330.4363040924072, 330.6035771369934, 330.770427942276, 330.9444329738617, 331.1167039871216, 331.2898449897766, 331.45705795288086, 331.61739015579224, 331.8015990257263, 331.9747750759125]",left,332.9775071,Tue Jul 12 11:53:32 2016,1,PROV006,59.89535495,PSAP_PRO_V,2016_Jul_12_1148,A,,328.201472,330.4363041,330.6035771,330.7704279,330.944433,331.116704,331.289845,331.457058,331.6173902,331.801599,331.9747751,,,,,,,,,2.234832048,0.167273045,0.166850805,0.174005032,0.172271013,0.173141003,0.167212963,0.160332203,0.18420887,0.17317605,,,,,,,,0.37733030356,11,reg,37,0,41,41,29,,,,,,,332.9781871,Tue Jul 12 11:53:32 2016,1,1.553463936,steal,335.0633571,Tue Jul 12 11:53:34 2016,10,"[335.44865798950195, 335.6214280128479, 335.7843999862671, 335.9483151435852, 336.11530900001526, 336.282350063324, 336.45561814308167, 336.6346709728241, 336.8183741569519, 337.000470161438]",left,338.005511,Tue Jul 12 11:53:37 2016,1,PROV006,59.89535495,PSAP_PRO_V,2016_Jul_12_1148,A,,332.9781871,335.448658,335.621428,335.7844,335.9483151,336.115309,336.2823501,336.4556181,336.634671,336.8183742,337.0004702,,,,,,,,,2.470470906,0.172770023,0.162971973,0.163915157,0.166993856,0.167041063,0.17326808,0.17905283,0.183703184,0.182096004,,,,,,,,0.40222830836,20,reg,27,0,42,42,25,,,,,,,338.006187,Tue Jul 12 11:53:37 2016,0,1.086107969,steal,339.623276,Tue Jul 12 11:53:39 2016,10,"[340.1405770778656, 340.2951350212097, 340.45791506767273, 340.6189570426941, 340.77676796913147, 340.937068939209, 341.0990900993347, 341.259614944458, 341.4334990978241, 341.61031198501587]",right,342.614517,Tue Jul 12 11:53:42 2016,1,PROV006,59.89535495,PSAP_PRO_V,2016_Jul_12_1148,A,,338.006187,340.1405771,340.295135,340.4579151,340.618957,340.776768,340.9370689,341.0990901,341.2596149,341.4334991,341.610312,,,,,,,,,2.134390116,0.154557943,0.162780046,0.161041975,0.157810926,0.16030097,0.16202116,0.160524845,0.173884153,0.176812887,,,,,,,,0.36041250240,58,reg,16,0,43,43,80,,,,,,,342.61519,Tue Jul 12 11:53:42 2016,0,1.770929098,steal,344.917697,Tue Jul 12 11:53:44 2016,10,"[345.425626039505, 345.59174704551697, 345.7593741416931, 345.93806505203247, 346.0974659919739, 346.27196311950684, 346.4401230812073, 346.60759115219116, 346.77785205841064, 346.96220898628235]",right,347.9928741,Tue Jul 12 11:53:47 2016,1,PROV006,59.89535495,PSAP_PRO_V,2016_Jul_12_1148,A,,342.61519,345.425626,345.591747,345.7593741,345.9380651,346.097466,346.2719631,346.4401231,346.6075912,346.7778521,346.962209,,,,,,,,,2.810436011,0.166121006,0.167627096,0.17869091,0.15940094,0.174497128,0.168159962,0.167468071,0.170260906,0.184356928,,,,,,,,0.43470189652,72,reg,23,0,44,44,76,,,,,,,347.993547,Tue Jul 12 11:53:47 2016,1,1.537472963,bank,350.063401,Tue Jul 12 11:53:49 2016,10,"[350.8415219783783, 351.01536107063293, 351.1672270298004, 351.32139801979065, 351.48143005371094, 351.6386320590973, 351.81028604507446, 351.98396611213684, 352.1446340084076, 352.3196530342102]",right,353.337672,Tue Jul 12 11:53:53 2016,1,PROV006,59.89535495,PSAP_PRO_V,2016_Jul_12_1148,A,,347.993547,350.841522,351.0153611,351.167227,351.321398,351.4814301,351.6386321,351.810286,351.9839661,352.144634,352.319653,,,,,,,,,2.847975015,0.173839092,0.151865959,0.15417099,0.160032034,0.157202005,0.171653986,0.173680067,0.160667896,0.175019026,,,,,,,,0.43261060730,19,reg,22,0,45,45,23,,,,,,,353.3383591,Tue Jul 12 11:53:53 2016,0,2.188353777,bank,356.0578551,Tue Jul 12 11:53:55 2016,10,"[356.56049609184265, 356.73361110687256, 356.88282108306885, 357.0466639995575, 357.20089507102966, 357.35361909866333, 357.52938199043274, 357.6812250614166, 357.84657311439514, 358.00890707969666]",left,359.036375,Tue Jul 12 11:53:58 2016,1,PROV006,59.89535495,PSAP_PRO_V,2016_Jul_12_1148,A,,353.3383591,356.5604961,356.7336111,356.8828211,357.046664,357.2008951,357.3536191,357.529382,357.6812251,357.8465731,358.0089071,,,,,,,,,3.222136974,0.173115015,0.149209976,0.163842916,0.154231071,0.152724028,0.175762892,0.151843071,0.165348053,0.162333965,,,,,,,,0.46705479622,2,catch,24,0,46,46,83,,,,,,,359.0373671,Tue Jul 12 11:53:58 2016,1,0.822339058,bank,360.3879631,Tue Jul 12 11:54:00 2016,10,"[361.00843501091003, 361.16865515708923, 361.33708095550537, 361.4877049922943, 361.6394600868225, 361.8032419681549, 361.97743797302246, 362.13740706443787, 362.3043360710144, 362.48967814445496]",right,363.4928629,Tue Jul 12 11:54:03 2016,1,PROV006,59.89535495,PSAP_PRO_V,2016_Jul_12_1148,A,,359.0373671,361.008435,361.1686552,361.337081,361.487705,361.6394601,361.803242,361.977438,362.1374071,362.3043361,362.4896781,,,,,,,,,1.971067906,0.160220146,0.168425798,0.150624037,0.151755095,0.163781881,0.174196005,0.159969091,0.166929007,0.185342073,,,,,,,,0.34523110458,77,reg,26,0,47,47,73,,,,,,,363.4935441,Tue Jul 12 11:54:03 2016,0,1.95501709,steal,365.9794049,Tue Jul 12 11:54:05 2016,10,"[366.46477007865906, 366.6205461025238, 366.7821409702301, 366.92135095596313, 367.0813159942627, 367.24276900291443, 367.4002230167389, 367.5604169368744, 367.7344241142273, 367.90279603004456]",right,368.924098,Tue Jul 12 11:54:08 2016,1,PROV006,59.89535495,PSAP_PRO_V,2016_Jul_12_1148,A,,363.4935441,366.4647701,366.6205461,366.782141,366.921351,367.081316,367.242769,367.400223,367.5604169,367.7344241,367.902796,,,,,,,,,2.971225977,0.155776024,0.161594868,0.139209986,0.159965038,0.161453009,0.157454014,0.16019392,0.174007177,0.168371916,,,,,,,,0.44092519335,40,reg,26,0,48,48,20,,,,,,,368.925097,Tue Jul 12 11:54:08 2016,1,1.60352397,steal,371.0565259,Tue Jul 12 11:54:10 2016,10,"[371.64748215675354, 371.82468008995056, 371.9933741092682, 372.1447401046753, 372.3087000846863, 372.46581506729126, 372.60990810394287, 372.7599561214447, 372.9269959926605, 373.11235904693604]",left,374.11589,Tue Jul 12 11:54:13 2016,1,PROV006,59.89535495,PSAP_PRO_V,2016_Jul_12_1148,A,,368.925097,371.6474822,371.8246801,371.9933741,372.1447401,372.3087001,372.4658151,372.6099081,372.7599561,372.926996,373.112359,,,,,,,,,2.722385168,0.177197933,0.168694019,0.151365995,0.16395998,0.157114983,0.144093037,0.150048018,0.167039871,0.185363054,,,,,,,,0.41872620658,20,reg,29,0,49,49,62,,,,,,,374.116569,Tue Jul 12 11:54:13 2016,0,2.206675053,steal,376.853687,Tue Jul 12 11:54:16 2016,10,"[377.49469900131226, 377.6701500415802, 377.839154958725, 378.00458908081055, 378.157977104187, 378.3287510871887, 378.49035811424255, 378.6461019515991, 378.8229560852051, 378.99176001548767]",right,379.9973781,Tue Jul 12 11:54:19 2016,1,PROV006,59.89535495,PSAP_PRO_V,2016_Jul_12_1148,A,,374.116569,377.494699,377.67015,377.839155,378.0045891,378.1579771,378.3287511,378.4903581,378.646102,378.8229561,378.99176,,,,,,,,,3.378129959,0.17545104,0.169004917,0.165434122,0.153388023,0.170773983,0.161607027,0.155743837,0.176854134,0.16880393,,,,,,,,0.48751909765,32,reg,29,0,50,50,71,,,,,,,379.9983711,Tue Jul 12 11:54:19 2016,0,1.056169033,steal,381.5822861,Tue Jul 12 11:54:21 2016,10,"[382.120726108551, 382.2969501018524, 382.4655930995941, 382.6320581436157, 382.814768075943, 382.9607529640198, 383.12771105766296, 383.2942340373993, 383.46614813804626, 383.63481307029724]",right,384.6410379,Tue Jul 12 11:54:24 2016,1,PROV006,59.89535495,PSAP_PRO_V,2016_Jul_12_1148,A,,379.9983711,382.1207261,382.2969501,382.4655931,382.6320581,382.8147681,382.960753,383.1277111,383.294234,383.4661481,383.6348131,,,,,,,,,2.122354985,0.176223993,0.168642998,0.166465044,0.182709932,0.145984888,0.166958094,0.16652298,0.171914101,0.168664932,,,,,,,,0.36364419530,15,catch,75,0,51,51,88,,,,,,,384.6420331,Tue Jul 12 11:54:24 2016,0,1.588773966,bank,386.7582481,Tue Jul 12 11:54:26 2016,10,"[387.34441113471985, 387.5194070339203, 387.6812160015106, 387.8490619659424, 388.0097391605377, 388.1761920452118, 388.3503739833832, 388.53393292427063, 388.71196603775024, 388.93440103530884]",left,389.968956,Tue Jul 12 11:54:29 2016,1,PROV006,59.89535495,PSAP_PRO_V,2016_Jul_12_1148,A,,384.6420331,387.3444111,387.519407,387.681216,387.849062,388.0097392,388.176192,388.350374,388.5339329,388.711966,388.934401,,,,,,,,,2.702378035,0.174995899,0.161808968,0.167845964,0.160677195,0.166452885,0.174181938,0.183558941,0.178033113,0.222434998,,,,,,,,0.42923679423,22,reg,22,0,52,52,6,,,,,,,389.970001,Tue Jul 12 11:54:29 2016,1,0.888783932,bank,391.3869791,Tue Jul 12 11:54:31 2016,10,"[391.969092130661, 392.11802911758423, 392.27137303352356, 392.4349100589752, 392.58577513694763, 392.7434139251709, 392.9029290676117, 393.06998801231384, 393.23864698410034, 393.4056100845337]",right,394.4084821,Tue Jul 12 11:54:34 2016,1,PROV006,59.89535495,PSAP_PRO_V,2016_Jul_12_1148,A,,389.970001,391.9690921,392.1180291,392.271373,392.4349101,392.5857751,392.7434139,392.9029291,393.069988,393.238647,393.4056101,,,,,,,,,1.999091149,0.148936987,0.153343916,0.163537025,0.150865078,0.157638788,0.159515142,0.167058945,0.168658972,0.1669631,,,,,,,,0.3435609138,32,catch,76,0,53,53,87,,,,,,,394.4091601,Tue Jul 12 11:54:34 2016,1,1.137917995,bank,396.078388,Tue Jul 12 11:54:35 2016,10,"[396.706659078598, 396.8615610599518, 397.02446007728577, 397.1909999847412, 397.35226011276245, 397.51291012763977, 397.6795630455017, 397.8468050956726, 398.01538610458374, 398.1992700099945]",right,399.2216439,Tue Jul 12 11:54:38 2016,1,PROV006,59.89535495,PSAP_PRO_V,2016_Jul_12_1148,A,,394.4091601,396.7066591,396.8615611,397.0244601,397.191,397.3522601,397.5129101,397.679563,397.8468051,398.0153861,398.19927,,,,,,,,,2.297498942,0.154901981,0.162899017,0.166539907,0.161260128,0.160650015,0.166652918,0.16724205,0.168581009,0.183883905,,,,,,,,0.37901098714,7,reg,9,0,54,54,34,,,,,,,399.222635,Tue Jul 12 11:54:38 2016,0,2.9932549,bank,402.743783,Tue Jul 12 11:54:42 2016,10,"[403.3269031047821, 403.49937105178833, 403.64602303504944, 403.7994101047516, 403.9677951335907, 404.12682700157166, 404.2953760623932, 404.4681570529938, 404.6350700855255, 404.802109003067]",left,405.836113,Tue Jul 12 11:54:45 2016,1,PROV006,59.89535495,PSAP_PRO_V,2016_Jul_12_1148,A,,399.222635,403.3269031,403.4993711,403.646023,403.7994101,403.9677951,404.126827,404.2953761,404.4681571,404.6350701,404.802109,,,,,,,,,4.104268074,0.172467947,0.146651983,0.15338707,0.168385029,0.159031868,0.168549061,0.172780991,0.166913033,0.167038918,,,,,,,,0.55794739743,94,reg,19,0,55,55,74,,,,,,,405.8371091,Tue Jul 12 11:54:45 2016,0,1.837723017,steal,408.202698,Tue Jul 12 11:54:47 2016,10,"[408.7533321380615, 408.92721700668335, 409.0954840183258, 409.2540590763092, 409.4214460849762, 409.5745129585266, 409.74239206314087, 409.91267108917236, 410.0895531177521, 410.26446199417114]",right,411.281008,Tue Jul 12 11:54:51 2016,1,PROV006,59.89535495,PSAP_PRO_V,2016_Jul_12_1148,A,,405.8371091,408.7533321,408.927217,409.095484,409.2540591,409.4214461,409.574513,409.7423921,409.9126711,410.0895531,410.264462,,,,,,,,,2.916223049,0.173884869,0.168267012,0.158575058,0.167387009,0.153066874,0.167879105,0.170279026,0.176882029,0.174908876,,,,,,,,0.44273529147,46,reg,26,0,56,56,46,,,,,,,411.2819841,Tue Jul 12 11:54:51 2016,0,1.807344198,bank,413.617625,Tue Jul 12 11:54:53 2016,10,"[414.143541097641, 414.30507016181946, 414.4655101299286, 414.6237630844116, 414.78276014328003, 414.945769071579, 415.1073100566864, 415.27029299736023, 415.437304019928, 415.61351799964905]",left,416.6387551,Tue Jul 12 11:54:56 2016,1,PROV006,59.89535495,PSAP_PRO_V,2016_Jul_12_1148,A,,411.2819841,414.1435411,414.3050702,414.4655101,414.6237631,414.7827601,414.9457691,415.1073101,415.270293,415.437304,415.613518,,,,,,,,,2.861557007,0.161529064,0.160439968,0.158252954,0.158997059,0.163008928,0.161540985,0.162982941,0.167011023,0.17621398,,,,,,,,0.43315339138,5,reg,28,0,57,57,24,,,,,,,416.6394351,Tue Jul 12 11:54:56 2016,1,0.839025974,steal,418.010747,Tue Jul 12 11:54:57 2016,10,"[418.66996693611145, 418.8327190876007, 418.9933969974518, 419.1541850566864, 419.3090751171112, 419.47618293762207, 419.6388440132141, 419.80583596229553, 419.99703001976013, 420.1943700313568]",left,421.1996191,Tue Jul 12 11:55:00 2016,1,PROV006,59.89535495,PSAP_PRO_V,2016_Jul_12_1148,A,,416.6394351,418.6699669,418.8327191,418.993397,419.1541851,419.3090751,419.4761829,419.638844,419.805836,419.99703,420.19437,,,,,,,,,2.030531883,0.162752151,0.16067791,0.160788059,0.15489006,0.167107821,0.162661076,0.166991949,0.191194057,0.197340012,,,,,,,,0.35549349829,22,catch,44,0,58,58,84,,,,,,,421.200285,Tue Jul 12 11:55:00 2016,0,1.206269979,bank,422.9376731,Tue Jul 12 11:55:02 2016,10,"[423.4970350265503, 423.6516659259796, 423.7935121059418, 423.9523570537567, 424.09839606285095, 424.2530391216278, 424.40645599365234, 424.56648802757263, 424.7207260131836, 424.955904006958]",left,425.958986,Tue Jul 12 11:55:05 2016,1,PROV006,59.89535495,PSAP_PRO_V,2016_Jul_12_1148,A,,421.200285,423.497035,423.6516659,423.7935121,423.9523571,424.0983961,424.2530391,424.406456,424.566488,424.720726,424.955904,,,,,,,,,2.296750069,0.154630899,0.14184618,0.158844948,0.146039009,0.154643059,0.153416872,0.160032034,0.154237986,0.235177994,,,,,,,,0.37556190532,73,reg,24,0,59,59,17,,,,,,,425.959657,Tue Jul 12 11:55:05 2016,1,1.974713087,bank,428.4662681,Tue Jul 12 11:55:08 2016,10,"[428.952898979187, 429.10893511772156, 429.27152609825134, 429.43050599098206, 429.59074807167053, 429.76094007492065, 429.9181389808655, 430.0945200920105, 430.2826340198517, 430.48309302330017]",right,431.506983,Tue Jul 12 11:55:11 2016,1,PROV006,59.89535495,PSAP_PRO_V,2016_Jul_12_1148,A,,425.959657,428.952899,429.1089351,429.2715261,429.430506,429.5907481,429.7609401,429.918139,430.0945201,430.282634,430.483093,,,,,,,,,2.993242025,0.156036139,0.162590981,0.158979893,0.160242081,0.170192003,0.157198906,0.176381111,0.188113928,0.200459003,,,,,,,,0.45234360768,54,reg,27,0,60,60,81,,,,,,,431.5079801,Tue Jul 12 11:55:11 2016,0,1.87301302,steal,433.9101009,Tue Jul 12 11:55:13 2016,10,"[434.58289313316345, 434.74343705177307, 434.89541506767273, 435.0625009536743, 435.2307331562042, 435.39310002326965, 435.5268409252167, 435.70585203170776, 435.8609960079193, 436.0465760231018]",right,437.0492342,Tue Jul 12 11:55:16 2016,1,PROV006,59.89535495,PSAP_PRO_V,2016_Jul_12_1148,A,,431.5079801,434.5828931,434.7434371,434.8954151,435.062501,435.2307332,435.3931,435.5268409,435.705852,435.860996,436.046576,,,,,,,,,3.074913025,0.160543919,0.151978016,0.167085886,0.168232203,0.162366867,0.133740902,0.179011106,0.155143976,0.185580015,,,,,,,,0.45385959232,87,reg,18,0,61,61,52,,,,,,,437.0499082,Tue Jul 12 11:55:16 2016,0,1.557215929,steal,439.139029,Tue Jul 12 11:55:18 2016,10,"[439.69822216033936, 439.86526012420654, 440.0232729911804, 440.19024300575256, 440.3608341217041, 440.5210349559784, 440.6783699989319, 440.8344340324402, 440.99033999443054, 441.1690630912781]",right,442.196883,Tue Jul 12 11:55:21 2016,1,PROV006,59.89535495,PSAP_PRO_V,2016_Jul_12_1148,A,,437.0499082,439.6982222,439.8652601,440.023273,440.190243,440.3608341,440.521035,440.67837,440.834434,440.99034,441.1690631,,,,,,,,,2.648313999,0.167037964,0.158012867,0.166970015,0.170591116,0.160200834,0.157335043,0.156064034,0.155905962,0.178723097,,,,,,,,0.41191549322,23,reg,21,0,62,62,2,,,,,,,442.1978869,Tue Jul 12 11:55:21 2016,1,1.319879055,bank,444.0454161,Tue Jul 12 11:55:23 2016,10,"[444.46439504623413, 444.62159395217896, 444.78172993659973, 444.943922996521, 445.09308099746704, 445.26448011398315, 445.4217529296875, 445.59420013427734, 445.74873208999634, 445.91212701797485]",right,446.9403341,Tue Jul 12 11:55:26 2016,1,PROV006,59.89535495,PSAP_PRO_V,2016_Jul_12_1148,A,,442.1978869,444.464395,444.621594,444.7817299,444.943923,445.093081,445.2644801,445.4217529,445.5942001,445.7487321,445.912127,,,,,,,,,2.266508102,0.157198906,0.160135984,0.16219306,0.149158001,0.171399117,0.157272816,0.172447205,0.154531956,0.163394928,,,,,,,,0.37142400750,49,reg,29,0,63,63,45,,,,,,,446.9413331,Tue Jul 12 11:55:26 2016,0,2.108901978,steal,449.5785081,Tue Jul 12 11:55:29 2016,10,"[450.044322013855, 450.2164831161499, 450.3584759235382, 450.51042199134827, 450.6811110973358, 450.81294894218445, 450.97661995887756, 451.12693905830383, 451.2846710681915, 451.4568660259247]",right,452.483671,Tue Jul 12 11:55:32 2016,1,PROV006,59.89535495,PSAP_PRO_V,2016_Jul_12_1148,A,,446.9413331,450.044322,450.2164831,450.3584759,450.510422,450.6811111,450.8129489,450.97662,451.1269391,451.2846711,451.456866,,,,,,,,,3.102988959,0.172161102,0.141992807,0.151946068,0.170689106,0.131837845,0.163671017,0.150319099,0.15773201,0.172194958,,,,,,,,0.45155329734,64,reg,19,0,64,64,43,,,,,,,452.4843371,Tue Jul 12 11:55:32 2016,1,2.423949957,steal,455.437881,Tue Jul 12 11:55:35 2016,10,"[455.74359107017517, 455.91182708740234, 456.07063698768616, 456.22103905677795, 456.3840880393982, 456.53474497795105, 456.6953561306, 456.84753799438477, 457.0060410499573, 457.164803981781]",left,458.1776102,Tue Jul 12 11:55:37 2016,1,PROV006,59.89535495,PSAP_PRO_V,2016_Jul_12_1148,A,,452.4843371,455.7435911,455.9118271,456.070637,456.2210391,456.384088,456.534745,456.6953561,456.847538,457.0060411,457.164804,,,,,,,,,3.259253979,0.168236017,0.1588099,0.150402069,0.163048983,0.150656939,0.160611153,0.152181864,0.158503056,0.158762932,,,,,,,,0.46804668916,16,reg,11,0,65,65,31,,,,,,,458.178282,Tue Jul 12 11:55:37 2016,0,1.722352982,steal,460.4317861,Tue Jul 12 11:55:40 2016,10,"[460.9307930469513, 461.1013460159302, 461.26097297668457, 461.42267298698425, 461.5738971233368, 461.7341470718384, 461.9015221595764, 462.05752205848694, 462.2354691028595, 462.4045181274414]",right,463.4218671,Tue Jul 12 11:55:43 2016,1,PROV006,59.89535495,PSAP_PRO_V,2016_Jul_12_1148,A,,458.178282,460.930793,461.101346,461.260973,461.422673,461.5738971,461.7341471,461.9015222,462.0575221,462.2354691,462.4045181,,,,,,,,,2.752511025,0.170552969,0.159626961,0.16170001,0.151224136,0.160249949,0.167375088,0.155999899,0.177947044,0.169049025,,,,,,,,0.42262361128,21,catch,31,0,66,66,82,,,,,,,463.4226069,Tue Jul 12 11:55:43 2016,0,1.573877096,bank,465.528528,Tue Jul 12 11:55:45 2016,10,"[466.0935580730438, 466.25274896621704, 466.41620898246765, 466.5721981525421, 466.73372292518616, 466.8953881263733, 467.07374906539917, 467.2457070350647, 467.4218771457672, 467.6547019481659]",left,468.6700811,Tue Jul 12 11:55:48 2016,1,PROV006,59.89535495,PSAP_PRO_V,2016_Jul_12_1148,A,,463.4226069,466.0935581,466.252749,466.416209,466.5721982,466.7337229,466.8953881,467.0737491,467.245707,467.4218771,467.6547019,,,,,,,,,2.670951128,0.159190893,0.163460016,0.15598917,0.161524773,0.161665201,0.178360939,0.17195797,0.176170111,0.232824802,,,,,,,,0.42320958,19,catch,20,0,67,67,89,,,,,,,468.6710601,Tue Jul 12 11:55:48 2016,1,1.43686223,bank,470.6356909,Tue Jul 12 11:55:50 2016,10,"[471.00403809547424, 471.17283511161804, 471.3367691040039, 471.49523401260376, 471.6706471443176, 471.8290979862213, 471.9842720031738, 472.1516671180725, 472.3293390274048, 472.535768032074]",right,473.560015,Tue Jul 12 11:55:53 2016,1,PROV006,59.89535495,PSAP_PRO_V,2016_Jul_12_1148,A,,468.6710601,471.0040381,471.1728351,471.3367691,471.495234,471.6706471,471.829098,471.984272,472.1516671,472.329339,472.535768,,,,,,,,,2.33297801,0.168797016,0.163933992,0.158464909,0.175413132,0.158450842,0.155174017,0.167395115,0.177671909,0.206429005,,,,,,,,0.38647079532,11,reg,21,0,68,68,41,,,,,,,473.5606802,Tue Jul 12 11:55:53 2016,1,2.691021204,steal,476.783174,Tue Jul 12 11:55:56 2016,10,"[477.22892713546753, 477.41183710098267, 477.5742471218109, 477.73346304893494, 477.89669394493103, 478.0579330921173, 478.2141799926758, 478.3881039619446, 478.56405305862427, 478.7559051513672]",left,479.7769411,Tue Jul 12 11:55:59 2016,1,PROV006,59.89535495,PSAP_PRO_V,2016_Jul_12_1148,A,,473.5606802,477.2289271,477.4118371,477.5742471,477.733463,477.8966939,478.0579331,478.21418,478.388104,478.5640531,478.7559052,,,,,,,,,3.668246984,0.182909966,0.162410021,0.159215927,0.163230896,0.161239147,0.156246901,0.173923969,0.175949097,0.191852093,,,,,,,,0.519522570,87,reg,39,0,69,69,54,,,,,,,479.777926,Tue Jul 12 11:55:59 2016,1,1.588578939,bank,481.8941131,Tue Jul 12 11:56:01 2016,10,"[482.25975799560547, 482.42986011505127, 482.60114908218384, 482.761018037796, 482.9180181026459, 483.09677505493164, 483.2367899417877, 483.3957669734955, 483.5691821575165, 483.7495629787445]",right,484.787674,Tue Jul 12 11:56:04 2016,1,PROV006,59.89535495,PSAP_PRO_V,2016_Jul_12_1148,A,,479.777926,482.259758,482.4298601,482.6011491,482.761018,482.9180181,483.0967751,483.2367899,483.395767,483.5691822,483.749563,,,,,,,,,2.481832028,0.170102119,0.171288967,0.159868956,0.157000065,0.178756952,0.140014887,0.158977032,0.173415184,0.180380821,,,,,,,,0.39716370131,1,reg,28,0,70,70,7,,,,,,,484.788661,Tue Jul 12 11:56:04 2016,1,1.588577032,steal,486.9047182,Tue Jul 12 11:56:06 2016,10,"[487.2873730659485, 487.4531011581421, 487.6056971549988, 487.7732629776001, 487.93509006500244, 488.0890140533447, 488.2519500255585, 488.4134840965271, 488.5799059867859, 488.7570071220398]",left,489.7643881,Tue Jul 12 11:56:09 2016,1,PROV006,59.89535495,PSAP_PRO_V,2016_Jul_12_1148,A,,484.788661,487.2873731,487.4531012,487.6056972,487.773263,487.9350901,488.0890141,488.25195,488.4134841,488.579906,488.7570071,,,,,,,,,2.498712063,0.165728092,0.152595997,0.167565823,0.161827087,0.153923988,0.162935972,0.161534071,0.16642189,0.177101135,,,,,,,,0.39683461253,53,reg,39,0,71,71,26,,,,,,,489.7653871,Tue Jul 12 11:56:09 2016,0,1.373816013,steal,491.66768,Tue Jul 12 11:56:11 2016,10,"[492.1476049423218, 492.31609201431274, 492.4714469909668, 492.6221261024475, 492.7740681171417, 492.9325749874115, 493.101350069046, 493.246484041214, 493.4034640789032, 493.5740420818329]",right,494.6090901,Tue Jul 12 11:56:14 2016,1,PROV006,59.89535495,PSAP_PRO_V,2016_Jul_12_1148,A,,489.7653871,492.1476049,492.316092,492.471447,492.6221261,492.7740681,492.932575,493.1013501,493.246484,493.4034641,493.5740421,,,,,,,,,2.382217884,0.168487072,0.155354977,0.150679111,0.151942015,0.15850687,0.168775082,0.145133972,0.156980038,0.170578003,,,,,,,,0.38086550258,4,reg,29,0,72,72,66,,,,,,,494.610069,Tue Jul 12 11:56:14 2016,0,1.253387928,steal,496.390522,Tue Jul 12 11:56:16 2016,10,"[496.85440397262573, 497.0278100967407, 497.183226108551, 497.33182096481323, 497.4938530921936, 497.65551710128784, 497.81242513656616, 497.9783499240875, 498.13598704338074, 498.2956211566925]",right,499.2986081,Tue Jul 12 11:56:19 2016,1,PROV006,59.89535495,PSAP_PRO_V,2016_Jul_12_1148,A,,494.610069,496.854404,497.0278101,497.1832261,497.331821,497.4938531,497.6555171,497.8124251,497.9783499,498.135987,498.2956212,,,,,,,,,2.244334937,0.173406124,0.155416012,0.148594856,0.162032127,0.161664009,0.156908035,0.165924788,0.157637119,0.159634113,,,,,,,,0.36855521250,43,reg,25,0,73,73,64,,,,,,,499.299284,Tue Jul 12 11:56:19 2016,1,1.152956009,steal,500.98369,Tue Jul 12 11:56:20 2016,10,"[501.44121408462524, 501.6194009780884, 501.75850915908813, 501.9184789657593, 502.0684950351715, 502.2272551059723, 502.3988039493561, 502.5663001537323, 502.74335193634033, 502.9206790924072]",left,503.925036,Tue Jul 12 11:56:23 2016,1,PROV006,59.89535495,PSAP_PRO_V,2016_Jul_12_1148,A,,499.299284,501.4412141,501.619401,501.7585092,501.918479,502.068495,502.2272551,502.3988039,502.5663002,502.7433519,502.9206791,,,,,,,,,2.141930104,0.178186893,0.139108181,0.159969807,0.150016069,0.158760071,0.171548843,0.167496204,0.177051783,0.177327156,,,,,,,,0.36213951141,4,reg,37,0,74,74,11,,,,,,,503.9257071,Tue Jul 12 11:56:23 2016,1,1.070768833,steal,505.5275869,Tue Jul 12 11:56:25 2016,10,"[505.86817598342896, 506.0272009372711, 506.20094203948975, 506.36123514175415, 506.53216314315796, 506.70191502571106, 506.9191119670868, 507.11594009399414, 507.2924029827118, 507.48670196533203]",left,508.5214221,Tue Jul 12 11:56:28 2016,1,PROV006,59.89535495,PSAP_PRO_V,2016_Jul_12_1148,A,,503.9257071,505.868176,506.0272009,506.200942,506.3612351,506.5321631,506.701915,506.919112,507.1159401,507.292403,507.486702,,,,,,,,,1.942468881,0.159024954,0.173741102,0.160293102,0.170928001,0.169751883,0.217196941,0.196828127,0.176462889,0.194298983,,,,,,,,0.35609948632,85,reg,18,0,75,75,49,,,,,,,508.5224161,Tue Jul 12 11:56:28 2016,0,1.853923082,steal,510.90396,Tue Jul 12 11:56:30 2016,10,"[511.67219400405884, 511.83538913726807, 511.9978549480438, 512.158597946167, 512.3255641460419, 512.481281042099, 512.6444230079651, 512.798525094986, 512.9702439308167, 513.1257209777832]",right,514.1334941,Tue Jul 12 11:56:33 2016,1,PROV006,59.89535495,PSAP_PRO_V,2016_Jul_12_1148,A,,508.5224161,511.672194,511.8353891,511.9978549,512.1585979,512.3255641,512.481281,512.644423,512.7985251,512.9702439,513.125721,,,,,,,,,3.149777889,0.163195133,0.162465811,0.160742998,0.1669662,0.155716896,0.163141966,0.154102087,0.171718836,0.155477047,,,,,,,,0.46033048677,48,reg,43,0,76,76,47,,,,,,,514.134485,Tue Jul 12 11:56:33 2016,0,1.570125103,steal,516.232312,Tue Jul 12 11:56:35 2016,10,"[516.7241849899292, 516.8850541114807, 517.0413911342621, 517.1873550415039, 517.3513700962067, 517.4992151260376, 517.6517169475555, 517.8053390979767, 517.9877600669861, 518.1530830860138]",right,519.160943,Tue Jul 12 11:56:38 2016,1,PROV006,59.89535495,PSAP_PRO_V,2016_Jul_12_1148,A,,514.134485,516.724185,516.8850541,517.0413911,517.187355,517.3513701,517.4992151,517.6517169,517.8053391,517.9877601,518.1530831,,,,,,,,,2.589699984,0.160869122,0.156337023,0.145963907,0.164015055,0.14784503,0.152501822,0.15362215,0.182420969,0.165323019,,,,,,,,0.40185980810,20,reg,5,0,77,77,63,,,,,,,519.1619501,Tue Jul 12 11:56:38 2016,1,2.340416193,steal,522.0294471,Tue Jul 12 11:56:41 2016,10,"[522.7093160152435, 522.8590149879456, 523.0200700759888, 523.1733560562134, 523.3392989635468, 523.5107729434967, 523.6728160381317, 523.831768989563, 523.9890151023865, 524.1740109920502]",left,525.190073,Tue Jul 12 11:56:44 2016,1,PROV006,59.89535495,PSAP_PRO_V,2016_Jul_12_1148,A,,519.1619501,522.709316,522.859015,523.0200701,523.1733561,523.339299,523.5107729,523.672816,523.831769,523.9890151,524.174011,,,,,,,,,3.547365904,0.149698973,0.161055088,0.15328598,0.165942907,0.17147398,0.162043095,0.158952951,0.157246113,0.18499589,,,,,,,,0.50120608836,8,reg,24,0,78,78,30,,,,,,,525.191076,Tue Jul 12 11:56:44 2016,1,1.072706223,steal,526.7922661,Tue Jul 12 11:56:46 2016,10,"[527.230416059494, 527.3958129882812, 527.5493581295013, 527.715047121048, 527.8904981613159, 528.0605490207672, 528.2275640964508, 528.408196926117, 528.5748739242554, 528.7717070579529]",left,529.800175,Tue Jul 12 11:56:49 2016,1,PROV006,59.89535495,PSAP_PRO_V,2016_Jul_12_1148,A,,525.191076,527.2304161,527.395813,527.5493581,527.7150471,527.8904982,528.060549,528.2275641,528.4081969,528.5748739,528.7717071,,,,,,,,,2.039340019,0.165396929,0.153545141,0.165688992,0.17545104,0.170050859,0.167015076,0.18063283,0.166676998,0.196833134,,,,,,,,0.35806310262,13,reg,41,0,79,79,33,,,,,,,529.801177,Tue Jul 12 11:56:49 2016,1,1.805908918,steal,532.1345291,Tue Jul 12 11:56:51 2016,10,"[532.7023711204529, 532.8510489463806, 533.0196559429169, 533.1865661144257, 533.3419060707092, 533.509416103363, 533.6375629901886, 533.8321721553802, 534.022057056427, 534.2220730781555]",left,535.2283201,Tue Jul 12 11:56:54 2016,1,PROV006,59.89535495,PSAP_PRO_V,2016_Jul_12_1148,A,,529.801177,532.7023711,532.8510489,533.0196559,533.1865661,533.3419061,533.5094161,533.637563,533.8321722,534.0220571,534.2220731,,,,,,,,,2.901194095,0.148677826,0.168606997,0.166910172,0.155339956,0.167510033,0.128146887,0.194609165,0.189884901,0.200016022,,,,,,,,0.44208960574,24,reg,33,0,80,80,70,,,,,,,535.2293019,Tue Jul 12 11:56:54 2016,0,1.323658943,steal,537.08126,Tue Jul 12 11:56:56 2016,10,"[537.5624809265137, 537.7404091358185, 537.89684009552, 538.0620930194855, 538.2474820613861, 538.3918840885162, 538.5547089576721, 538.7262151241302, 538.9003360271454, 539.0824239253998]",right,540.0853491,Tue Jul 12 11:56:59 2016,1,PROV006,59.89535495,PSAP_PRO_V,2016_Jul_12_1148,A,,535.2293019,537.5624809,537.7404091,537.8968401,538.062093,538.2474821,538.3918841,538.554709,538.7262151,538.900336,539.0824239,,,,,,,,,2.333178998,0.177928209,0.15643096,0.165252924,0.185389042,0.144402027,0.162824869,0.171506166,0.174120903,0.182087898,,,,,,,,0.385312247,48,reg,21,0,81,81,69,,,,,,,540.08602,Tue Jul 12 11:56:59 2016,1,1.035624027,steal,541.6532509,Tue Jul 12 11:57:01 2016,10,"[542.6750609874725, 542.8556361198425, 543.0057821273804, 543.1630311012268, 543.3067989349365, 543.4583311080933, 543.6032190322876, 543.7575449943542, 543.9093999862671, 544.0666451454163]",left,545.0798922,Tue Jul 12 11:57:04 2016,1,PROV006,59.89535495,PSAP_PRO_V,2016_Jul_12_1148,A,,540.08602,542.675061,542.8556361,543.0057821,543.1630311,543.3067989,543.4583311,543.603219,543.757545,543.9094,544.0666451,,,,,,,,,2.589040994,0.180575132,0.150146008,0.157248974,0.143767834,0.151532173,0.144887924,0.154325962,0.151854992,0.157245159,,,,,,,,0.39806251540,20,catch,80,0,82,82,86,,,,,,,545.080575,Tue Jul 12 11:57:04 2016,0,1.237998962,bank,546.8491011,Tue Jul 12 11:57:06 2016,10,"[547.6222159862518, 547.8058631420135, 547.984806060791, 548.1335699558258, 548.2841811180115, 548.4471061229706, 548.6043059825897, 548.7853560447693, 548.9384269714355, 549.1202509403229]",left,550.1231921,Tue Jul 12 11:57:09 2016,1,PROV006,59.89535495,PSAP_PRO_V,2016_Jul_12_1148,A,,545.080575,547.622216,547.8058631,547.9848061,548.13357,548.2841811,548.4471061,548.604306,548.785356,548.938427,549.1202509,,,,,,,,,2.541640997,0.183647156,0.178942919,0.148763895,0.150611162,0.162925005,0.15719986,0.181050062,0.153070927,0.181823969,,,,,,,,0.40396759544,38,reg,22,0,83,83,59,,,,,,,550.123873,Tue Jul 12 11:57:09 2016,0,1.553405046,steal,552.2088451,Tue Jul 12 11:57:11 2016,10,"[552.7178430557251, 552.8769941329956, 553.0354380607605, 553.1945960521698, 553.3629839420319, 553.5130650997162, 553.6517331600189, 553.8074660301208, 553.9543011188507, 554.114725112915]",right,555.12077,Tue Jul 12 11:57:14 2016,1,PROV006,59.89535495,PSAP_PRO_V,2016_Jul_12_1148,A,,550.123873,552.7178431,552.8769941,553.0354381,553.1945961,553.3629839,553.5130651,553.6517332,553.807466,553.9543011,554.1147251,,,,,,,,,2.593970061,0.159151077,0.158443928,0.159157991,0.16838789,0.150081158,0.13866806,0.15573287,0.146835089,0.160423994,,,,,,,,0.39908521247,49,reg,35,0,84,84,21,,,,,,,555.1217589,Tue Jul 12 11:57:14 2016,1,1.103116035,steal,556.7523341,Tue Jul 12 11:57:16 2016,10,"[557.1374399662018, 557.3044650554657, 557.4666061401367, 557.6279909610748, 557.795902967453, 557.9628751277924, 558.1396131515503, 558.3070001602173, 558.4736161231995, 558.646152973175]",left,559.6771619,Tue Jul 12 11:57:19 2016,1,PROV006,59.89535495,PSAP_PRO_V,2016_Jul_12_1148,A,,555.1217589,557.13744,557.3044651,557.4666061,557.627991,557.795903,557.9628751,558.1396132,558.3070002,558.4736161,558.646153,,,,,,,,,2.015681028,0.167025089,0.162141085,0.161384821,0.167912006,0.16697216,0.176738024,0.167387009,0.166615963,0.17253685,,,,,,,,0.35243940424,12,reg,23,0,85,85,5,,,,,,,559.6778421,Tue Jul 12 11:57:19 2016,1,1.839203119,steal,562.0480721,Tue Jul 12 11:57:21 2016,10,"[562.3717620372772, 562.5308041572571, 562.6878390312195, 562.8500101566315, 562.9945011138916, 563.1655550003052, 563.3231620788574, 563.4794120788574, 563.6349530220032, 563.7969479560852]",left,564.8248551,Tue Jul 12 11:57:24 2016,1,PROV006,59.89535495,PSAP_PRO_V,2016_Jul_12_1148,A,,559.6778421,562.371762,562.5308042,562.687839,562.8500102,562.9945011,563.165555,563.3231621,563.4794121,563.634953,563.796948,,,,,,,,,2.693919897,0.15904212,0.157034874,0.162171125,0.144490957,0.171053886,0.157607079,0.15625,0.155540943,0.161994934,,,,,,,,0.41191058254,97,reg,24,0,86,86,72,,,,,,,564.82585,Tue Jul 12 11:57:24 2016,0,1.154558182,steal,566.50772,Tue Jul 12 11:57:26 2016,10,"[567.0656549930573, 567.2313611507416, 567.3912310600281, 567.5415549278259, 567.7007081508636, 567.8773529529572, 568.025866985321, 568.1943800449371, 568.3460991382599, 568.5172691345215]",right,569.5682471,Tue Jul 12 11:57:29 2016,1,PROV006,59.89535495,PSAP_PRO_V,2016_Jul_12_1148,A,,564.82585,567.065655,567.2313612,567.3912311,567.5415549,567.7007082,567.877353,568.025867,568.19438,568.3460991,568.5172691,,,,,,,,,2.239804983,0.165706158,0.159869909,0.150323868,0.159153223,0.176644802,0.148514032,0.16851306,0.151719093,0.171169996,,,,,,,,0.36914191240,54,reg,36,0,87,87,12,,,,,,,569.5692441,Tue Jul 12 11:57:29 2016,1,1.054323912,steal,571.1510141,Tue Jul 12 11:57:30 2016,10,"[571.6632671356201, 571.8190190792084, 571.986006975174, 572.1307530403137, 572.2933480739594, 572.4520239830017, 572.6021809577942, 572.7694730758667, 572.9380979537964, 573.1051170825958]",left,574.1278431,Tue Jul 12 11:57:33 2016,1,PROV006,59.89535495,PSAP_PRO_V,2016_Jul_12_1148,A,,569.5692441,571.6632671,571.8190191,571.986007,572.130753,572.2933481,572.452024,572.602181,572.7694731,572.938098,573.1051171,,,,,,,,,2.09402299,0.155751944,0.166987896,0.144746065,0.162595034,0.158675909,0.150156975,0.167292118,0.168624878,0.167019129,,,,,,,,0.35358729417,24,reg,16,0,88,88,4,,,,,,,574.1288471,Tue Jul 12 11:57:33 2016,1,1.353391886,steal,576.010046,Tue Jul 12 11:57:35 2016,10,"[576.367495059967, 576.5287981033325, 576.6867611408234, 576.8511490821838, 577.0132801532745, 577.1786229610443, 577.3421800136566, 577.5032360553741, 577.6816170215607, 577.8534369468689]",left,578.8844211,Tue Jul 12 11:57:38 2016,1,PROV006,59.89535495,PSAP_PRO_V,2016_Jul_12_1148,A,,574.1288471,576.3674951,576.5287981,576.6867611,576.8511491,577.0132802,577.178623,577.34218,577.5032361,577.681617,577.8534369,,,,,,,,,2.238647938,0.161303043,0.157963037,0.164387941,0.162131071,0.165342808,0.163557053,0.161056042,0.178380966,0.171819925,,,,,,,,0.37245898235,9,catch,52,0,89,89,85,,,,,,,578.885097,Tue Jul 12 11:57:38 2016,0,1.536831141,bank,580.953377,Tue Jul 12 11:57:40 2016,10,"[581.6284101009369, 581.7953629493713, 581.957034111023, 582.1242849826813, 582.259271144867, 582.4198911190033, 582.5748629570007, 582.742290019989, 582.8924901485443, 583.071310043335]",left,583.1023819,Tue Jul 12 11:57:42 2016,1,PROV006,59.89535495,PSAP_PRO_V,2016_Jul_12_1148,A,,578.885097,581.6284101,581.7953629,581.9570341,582.124285,582.2592711,582.4198911,582.574863,582.74229,582.8924901,583.07131,,,,,,,,,2.743313074,0.166952848,0.161671162,0.167250872,0.134986162,0.160619974,0.154971838,0.167427063,0.150200129,0.178819895,,,,,,,,0.41862130254,46,reg,40,0,0,0,22,,,,,,,357.76583,Thu Jul 14 13:36:53 2016,0,2.425240994,bank,360.7182522,Thu Jul 14 13:36:56 2016,11,"[361.00220704078674, 361.1234390735626, 361.2510781288147, 361.37246203422546, 361.48431515693665, 361.60339403152466, 361.7351460456848, 361.8776261806488, 361.98796105384827, 362.1080720424652, 362.23621010780334]",left,363.121505,Thu Jul 14 13:36:58 2016,1,PROV007,59.78709696,PSAP_PRO_V,2016_Jul_14_1331,A,,357.76583,361.002207,361.1234391,361.2510781,361.372462,361.4843152,361.603394,361.735146,361.8776262,361.9879611,362.108072,362.2362101,,,,,,,,3.236377001,0.121232033,0.127639055,0.121383905,0.111853123,0.119078875,0.131752014,0.142480135,0.110334873,0.120110989,0.128138065,,,,,,,0.40639818810,20,reg,5,0,1,1,63,,,,,,,363.1230011,Thu Jul 14 13:36:58 2016,1,2.90679884,steal,366.561758,Thu Jul 14 13:37:01 2016,12,"[366.7461440563202, 366.8783001899719, 367.0049350261688, 367.1356739997864, 367.25053906440735, 367.3730170726776, 367.49970722198486, 367.63110399246216, 367.7815191745758, 367.9038200378418, 368.02024817466736, 368.1656951904297]",left,368.9166071,Thu Jul 14 13:37:04 2016,1,PROV007,59.78709696,PSAP_PRO_V,2016_Jul_14_1331,A,,363.1230011,366.7461441,366.8783002,367.004935,367.135674,367.2505391,367.3730171,367.4997072,367.631104,367.7815192,367.90382,368.0202482,368.1656952,,,,,,,3.623142957,0.132156134,0.126634836,0.130738974,0.114865065,0.122478008,0.126690149,0.13139677,0.150415182,0.122300863,0.116428137,0.145447016,,,,,,0.42022450834,10,reg,23,0,2,2,32,,,,,,,368.9180551,Thu Jul 14 13:37:04 2016,0,1.921244144,bank,371.3715341,Thu Jul 14 13:37:06 2016,12,"[371.66179299354553, 371.9161961078644, 372.0388810634613, 372.1557340621948, 372.2756531238556, 372.3914110660553, 372.50845408439636, 372.6180582046509, 372.7635750770569, 373.04295206069946, 373.1764872074127, 373.30916714668274]",left,374.0433912,Thu Jul 14 13:37:09 2016,1,PROV007,59.78709696,PSAP_PRO_V,2016_Jul_14_1331,A,,368.9180551,371.661793,371.9161961,372.0388811,372.1557341,372.2756531,372.3914111,372.5084541,372.6180582,372.7635751,373.0429521,373.1764872,373.3091671,,,,,,,2.743737936,0.254403114,0.122684956,0.116852999,0.119919062,0.115757942,0.117043018,0.10960412,0.145516872,0.279376984,0.133535147,0.132679939,,,,,,0.36592600765,32,reg,29,0,3,3,71,,,,,,,374.0444131,Thu Jul 14 13:37:09 2016,1,2.475377083,steal,377.052973,Thu Jul 14 13:37:12 2016,11,"[377.3002700805664, 377.42790818214417, 377.5577120780945, 377.685916185379, 377.79541420936584, 377.9184741973877, 378.0365641117096, 378.1690011024475, 378.3040120601654, 378.43758606910706, 378.5472331047058]",left,379.4390662,Thu Jul 14 13:37:14 2016,1,PROV007,59.78709696,PSAP_PRO_V,2016_Jul_14_1331,A,,374.0444131,377.3002701,377.4279082,377.5577121,377.6859162,377.7954142,377.9184742,378.0365641,378.1690011,378.3040121,378.4375861,378.5472331,,,,,,,,3.255856991,0.127638102,0.129803896,0.128204107,0.109498024,0.123059988,0.118089914,0.132436991,0.135010958,0.133574009,0.109647036,,,,,,,0.40934727438,5,reg,28,0,4,4,24,,,,,,,379.4403682,Thu Jul 14 13:37:14 2016,0,1.15615201,bank,381.1292951,Thu Jul 14 13:37:16 2016,11,"[381.3424742221832, 381.4774980545044, 381.5867600440979, 381.732812166214, 381.8601140975952, 382.0284171104431, 382.4217870235443, 382.54635310173035, 382.661808013916, 382.77875113487244, 382.9365210533142]",left,383.781651,Thu Jul 14 13:37:19 2016,1,PROV007,59.78709696,PSAP_PRO_V,2016_Jul_14_1331,A,,379.4403682,381.3424742,381.4774981,381.58676,381.7328122,381.8601141,382.0284171,382.421787,382.5463531,382.661808,382.7787511,382.9365211,,,,,,,,1.902106046,0.135023832,0.10926199,0.146052122,0.127301931,0.168303013,0.393369913,0.124566078,0.115454912,0.116943121,0.157769918,,,,,,,0.3178320856,24,reg,28,0,5,5,58,,,,,,,383.7829421,Thu Jul 14 13:37:19 2016,1,1.339792967,bank,385.6559482,Thu Jul 14 13:37:21 2016,11,"[385.8034842014313, 385.93691301345825, 386.05968618392944, 386.2043352127075, 386.32652521133423, 386.4699430465698, 386.5973391532898, 386.70513701438904, 386.8557140827179, 387.006019115448, 387.13968420028687]",right,388.0073671,Thu Jul 14 13:37:23 2016,1,PROV007,59.78709696,PSAP_PRO_V,2016_Jul_14_1331,A,,383.7829421,385.8034842,385.936913,386.0596862,386.2043352,386.3265252,386.469943,386.5973392,386.705137,386.8557141,387.0060191,387.1396842,,,,,,,,2.020542144,0.133428812,0.12277317,0.144649029,0.122189999,0.143417835,0.127396107,0.107797861,0.150577068,0.150305033,0.133665085,,,,,,,0.30515837758,77,reg,26,0,6,6,73,,,,,,,388.008707,Thu Jul 14 13:37:23 2016,0,2.492069006,bank,391.032732,Thu Jul 14 13:37:26 2016,12,"[391.18373799324036, 391.3136601448059, 391.4413390159607, 391.5675001144409, 391.70425510406494, 391.83304500579834, 392.105406999588, 392.2426691055298, 392.3603250980377, 392.50272607803345, 392.6569061279297, 392.7851140499115]",left,393.5191622,Thu Jul 14 13:37:28 2016,1,PROV007,59.78709696,PSAP_PRO_V,2016_Jul_14_1331,A,,388.008707,391.183738,391.3136601,391.441339,391.5675001,391.7042551,391.833045,392.105407,392.2426691,392.3603251,392.5027261,392.6569061,392.7851141,,,,,,,3.175030946,0.129922152,0.127678871,0.126161098,0.13675499,0.128789902,0.272361994,0.137262106,0.117655993,0.14240098,0.15418005,0.128207922,,,,,,0.39803391728,21,catch,31,0,7,7,82,,,,,,,393.5203812,Thu Jul 14 13:37:28 2016,0,1.854795933,bank,395.9084141,Thu Jul 14 13:37:31 2016,12,"[396.1512830257416, 396.3144111633301, 396.4310882091522, 396.5750381946564, 396.6919720172882, 396.81499314308167, 396.94861912727356, 397.24927520751953, 397.39490509033203, 397.51361322402954, 397.6438481807709, 397.78376817703247]",left,398.5298042,Thu Jul 14 13:37:33 2016,1,PROV007,59.78709696,PSAP_PRO_V,2016_Jul_14_1331,A,,393.5203812,396.151283,396.3144112,396.4310882,396.5750382,396.691972,396.8149931,396.9486191,397.2492752,397.3949051,397.5136132,397.6438482,397.7837682,,,,,,,2.630901814,0.163128138,0.116677046,0.143949986,0.116933823,0.123021126,0.133625984,0.30065608,0.145629883,0.118708134,0.130234957,0.139919996,,,,,,0.35528224756,11,reg,37,0,8,8,29,,,,,,,398.5311122,Thu Jul 14 13:37:33 2016,0,1.838126898,steal,400.9025481,Thu Jul 14 13:37:36 2016,12,"[401.1213700771332, 401.252907037735, 401.3866720199585, 401.52044916152954, 401.63947319984436, 401.7707200050354, 401.93711614608765, 402.08831000328064, 402.2068130970001, 402.37199211120605, 402.5225532054901, 402.65461111068726]",right,403.3735621,Thu Jul 14 13:37:38 2016,1,PROV007,59.78709696,PSAP_PRO_V,2016_Jul_14_1331,A,,398.5311122,401.1213701,401.252907,401.386672,401.5204492,401.6394732,401.77072,401.9371161,402.08831,402.2068131,402.3719921,402.5225532,402.6546111,,,,,,,2.590257883,0.131536961,0.133764982,0.133777142,0.119024038,0.131246805,0.166396141,0.151193857,0.118503094,0.165179014,0.150561094,0.132057905,,,,,,0.3436249121,5,reg,14,0,9,9,27,,,,,,,403.3747692,Thu Jul 14 13:37:38 2016,0,1.423721075,bank,405.3313181,Thu Jul 14 13:37:40 2016,12,"[405.5457181930542, 405.6884491443634, 405.81737899780273, 405.95054602622986, 406.1300461292267, 406.2361171245575, 406.3639450073242, 406.6631290912628, 406.7694880962372, 406.96711707115173, 407.08764004707336, 407.23237204551697]",left,407.9831591,Thu Jul 14 13:37:43 2016,1,PROV007,59.78709696,PSAP_PRO_V,2016_Jul_14_1331,A,,403.3747692,405.5457182,405.6884491,405.817379,405.950546,406.1300461,406.2361171,406.363945,406.6631291,406.7694881,406.9671171,407.08764,407.232372,,,,,,,2.170948982,0.142730951,0.128929853,0.133167028,0.179500103,0.106070995,0.127827883,0.299184084,0.106359005,0.197628975,0.120522976,0.144731998,,,,,,0.32146690340,58,reg,16,0,10,10,80,,,,,,,407.9849632,Thu Jul 14 13:37:43 2016,0,1.770918131,bank,410.2879152,Thu Jul 14 13:37:45 2016,11,"[410.64897203445435, 410.7911901473999, 410.9123511314392, 411.0228600502014, 411.15615701675415, 411.29590702056885, 411.42500400543213, 411.5584981441498, 411.6971871852875, 411.8257541656494, 411.9519271850586]",left,412.8261132,Thu Jul 14 13:37:48 2016,1,PROV007,59.78709696,PSAP_PRO_V,2016_Jul_14_1331,A,,407.9849632,410.648972,410.7911901,410.9123511,411.0228601,411.156157,411.295907,411.425004,411.5584981,411.6971872,411.8257542,411.9519272,,,,,,,,2.664008855,0.142218113,0.121160984,0.110508919,0.133296967,0.139750004,0.129096985,0.133494139,0.138689041,0.12856698,0.126173019,,,,,,,0.36063309132,85,reg,18,0,11,11,49,,,,,,,412.82708,Thu Jul 14 13:37:48 2016,1,2.341815948,bank,415.70298,Thu Jul 14 13:37:51 2016,11,"[415.85599303245544, 416.0067081451416, 416.13329219818115, 416.27381205558777, 416.4071431159973, 416.544890165329, 416.68468403816223, 416.82485818862915, 416.9533021450043, 417.09229016304016, 417.18570613861084]",right,418.1216521,Thu Jul 14 13:37:53 2016,1,PROV007,59.78709696,PSAP_PRO_V,2016_Jul_14_1331,A,,412.82708,415.855993,416.0067081,416.1332922,416.2738121,416.4071431,416.5448902,416.684684,416.8248582,416.9533021,417.0922902,417.1857061,,,,,,,,3.028913021,0.150715113,0.126584053,0.140519857,0.13333106,0.137747049,0.139793873,0.14017415,0.128443956,0.138988018,0.093415976,,,,,,,0.39623873947,48,reg,21,0,12,12,69,,,,,,,418.1228852,Thu Jul 14 13:37:53 2016,1,1.907766104,bank,420.563514,Thu Jul 14 13:37:55 2016,12,"[420.69670009613037, 420.82830715179443, 420.9545750617981, 421.101016998291, 421.22896122932434, 421.3514611721039, 421.51265001296997, 421.64678716659546, 421.76897406578064, 421.8635721206665, 422.0364751815796, 422.1798930168152]",right,422.8647001,Thu Jul 14 13:37:58 2016,1,PROV007,59.78709696,PSAP_PRO_V,2016_Jul_14_1331,A,,418.1228852,420.6967001,420.8283072,420.9545751,421.101017,421.2289612,421.3514612,421.51265,421.6467872,421.7689741,421.8635721,422.0364752,422.179893,,,,,,,2.573814869,0.131607056,0.12626791,0.146441936,0.127944231,0.122499943,0.161188841,0.134137154,0.122186899,0.094598055,0.172903061,0.143417835,,,,,,0.33808398223,0,zero,54,0,13,13,1,,,,,,,422.8660522,Thu Jul 14 13:37:58 2016,0,1.003973961,bank,424.4024282,Thu Jul 14 13:37:59 2016,11,"[424.76849603652954, 424.896005153656, 425.0355100631714, 425.175989151001, 425.32136702537537, 425.4571990966797, 425.5698962211609, 425.6883490085602, 425.8144450187683, 425.9444270133972, 426.0726590156555]",left,426.9573331,Thu Jul 14 13:38:02 2016,1,PROV007,59.78709696,PSAP_PRO_V,2016_Jul_14_1331,A,,422.8660522,424.768496,424.8960052,425.0355101,425.1759892,425.321367,425.4571991,425.5698962,425.688349,425.814445,425.944427,426.072659,,,,,,,,1.902443886,0.127509117,0.13950491,0.140479088,0.145377874,0.135832071,0.112697124,0.118452787,0.12609601,0.129981995,0.128232002,,,,,,,0.29150971597,5,reg,43,0,14,14,67,,,,,,,426.9586382,Thu Jul 14 13:38:02 2016,1,1.487012863,steal,428.9779632,Thu Jul 14 13:38:04 2016,11,"[429.1107530593872, 429.2478702068329, 429.3675842285156, 429.51355814933777, 429.79603600502014, 429.9860761165619, 430.1134021282196, 430.2467420101166, 430.40077114105225, 430.54876708984375, 430.688148021698]",left,431.550364,Thu Jul 14 13:38:06 2016,1,PROV007,59.78709696,PSAP_PRO_V,2016_Jul_14_1331,A,,426.9586382,429.1107531,429.2478702,429.3675842,429.5135581,429.796036,429.9860761,430.1134021,430.246742,430.4007711,430.5487671,430.688148,,,,,,,,2.152114868,0.137117147,0.119714022,0.145973921,0.282477856,0.190040112,0.127326012,0.133339882,0.154029131,0.147995949,0.139380932,,,,,,,0.33904634835,9,catch,52,0,15,15,85,,,,,,,431.5516272,Thu Jul 14 13:38:06 2016,0,1.223047018,bank,433.3074901,Thu Jul 14 13:38:08 2016,11,"[433.5221161842346, 433.6442151069641, 433.7777900695801, 433.92755103111267, 434.0549440383911, 434.17965722084045, 434.4331810474396, 434.55933904647827, 434.6960790157318, 434.8415331840515, 434.9100890159607]",left,435.8428311,Thu Jul 14 13:38:11 2016,1,PROV007,59.78709696,PSAP_PRO_V,2016_Jul_14_1331,A,,431.5516272,433.5221162,433.6442151,433.7777901,433.927551,434.054944,434.1796572,434.433181,434.559339,434.696079,434.8415332,434.910089,,,,,,,,1.970489025,0.122098923,0.133574963,0.149760962,0.127393007,0.124713182,0.253523827,0.126157999,0.136739969,0.145454168,0.068555832,,,,,,,0.30531471450,43,reg,25,0,16,16,64,,,,,,,435.8441012,Thu Jul 14 13:38:11 2016,0,1.202983141,bank,437.5793562,Thu Jul 14 13:38:12 2016,11,"[437.78092408180237, 437.9298532009125, 438.06343722343445, 438.19126415252686, 438.32077503204346, 438.4476990699768, 438.58473110198975, 438.7149131298065, 438.8317770957947, 438.96013617515564, 439.0824270248413]",left,439.9851921,Thu Jul 14 13:38:15 2016,1,PROV007,59.78709696,PSAP_PRO_V,2016_Jul_14_1331,A,,435.8441012,437.7809241,437.9298532,438.0634372,438.1912642,438.320775,438.4476991,438.5847311,438.7149131,438.8317771,438.9601362,439.082427,,,,,,,,1.936822891,0.148929119,0.133584023,0.127826929,0.12951088,0.126924038,0.137032032,0.130182028,0.116863966,0.128359079,0.12229085,,,,,,,0.2943932588,19,catch,20,0,17,17,89,,,,,,,439.986464,Thu Jul 14 13:38:15 2016,0,1.973459005,bank,442.4920182,Thu Jul 14 13:38:17 2016,12,"[442.6962411403656, 442.84210109710693, 442.96417903900146, 443.0941970348358, 443.2309510707855, 443.3583700656891, 443.4951322078705, 443.6329050064087, 443.7604880332947, 443.8791170120239, 444.01674604415894, 444.161523103714]",left,444.8955691,Thu Jul 14 13:38:20 2016,1,PROV007,59.78709696,PSAP_PRO_V,2016_Jul_14_1331,A,,439.986464,442.6962411,442.8421011,442.964179,443.094197,443.2309511,443.3583701,443.4951322,443.632905,443.760488,443.879117,444.016746,444.1615231,,,,,,,2.709777116,0.145859957,0.122077942,0.130017996,0.136754036,0.127418995,0.136762142,0.137772799,0.127583027,0.118628979,0.137629032,0.14477706,,,,,,0.3479215953,53,reg,39,0,18,18,26,,,,,,,444.8968911,Thu Jul 14 13:38:20 2016,1,2.039634943,bank,447.4686701,Thu Jul 14 13:38:22 2016,11,"[447.55016922950745, 447.7022202014923, 447.8238730430603, 447.96182012557983, 448.11989307403564, 448.218581199646, 448.33546710014343, 448.4870011806488, 448.60578322410583, 448.7546420097351, 448.8979651927948]",right,449.756031,Thu Jul 14 13:38:25 2016,1,PROV007,59.78709696,PSAP_PRO_V,2016_Jul_14_1331,A,,444.8968911,447.5501692,447.7022202,447.823873,447.9618201,448.1198931,448.2185812,448.3354671,448.4870012,448.6057832,448.754642,448.8979652,,,,,,,,2.653278113,0.152050972,0.121652842,0.137947083,0.158072948,0.098688126,0.1168859,0.151534081,0.118782043,0.148858786,0.143323183,,,,,,,0.36373400750,49,reg,29,0,19,19,45,,,,,,,449.757318,Thu Jul 14 13:38:25 2016,1,1.138162851,bank,451.4275832,Thu Jul 14 13:38:26 2016,11,"[451.58691811561584, 451.71065402030945, 451.8441791534424, 451.9662070274353, 452.09506916999817, 452.2299361228943, 452.36071610450745, 452.5050230026245, 452.65181016921997, 452.7946321964264, 452.9189372062683]",right,453.7973802,Thu Jul 14 13:38:29 2016,1,PROV007,59.78709696,PSAP_PRO_V,2016_Jul_14_1331,A,,449.757318,451.5869181,451.710654,451.8441792,451.966207,452.0950692,452.2299361,452.3607161,452.505023,452.6518102,452.7946322,452.9189372,,,,,,,,1.829600096,0.123735905,0.133525133,0.122027874,0.128862143,0.134866953,0.130779982,0.144306898,0.146787167,0.142822027,0.12430501,,,,,,,0.28741992624,12,reg,23,0,20,20,5,,,,,,,453.7986801,Thu Jul 14 13:38:29 2016,0,1.206553936,bank,455.5382502,Thu Jul 14 13:38:30 2016,11,"[455.6952750682831, 455.84114599227905, 455.97444200515747, 456.1201500892639, 456.26350712776184, 456.3858551979065, 456.54270911216736, 456.6567602157593, 456.80489706993103, 456.93726110458374, 457.08775210380554]",left,457.939589,Thu Jul 14 13:38:33 2016,1,PROV007,59.78709696,PSAP_PRO_V,2016_Jul_14_1331,A,,453.7986801,455.6952751,455.841146,455.974442,456.1201501,456.2635071,456.3858552,456.5427091,456.6567602,456.8048971,456.9372611,457.0877521,,,,,,,,1.896595001,0.145870924,0.133296013,0.145708084,0.143357038,0.12234807,0.156853914,0.114051104,0.148136854,0.132364035,0.150490999,,,,,,,0.29900654941,4,reg,37,0,21,21,11,,,,,,,457.940943,Thu Jul 14 13:38:33 2016,0,2.35711503,bank,460.8318002,Thu Jul 14 13:38:36 2016,11,"[460.92895317077637, 461.06423711776733, 461.21296405792236, 461.34791803359985, 461.48684906959534, 461.61555099487305, 461.76734018325806, 461.91777515411377, 462.0544080734253, 462.18194007873535, 462.3180181980133]",left,463.1846292,Thu Jul 14 13:38:38 2016,1,PROV007,59.78709696,PSAP_PRO_V,2016_Jul_14_1331,A,,457.940943,460.9289532,461.0642371,461.2129641,461.347918,461.4868491,461.615551,461.7673402,461.9177752,462.0544081,462.1819401,462.3180182,,,,,,,,2.988010168,0.135283947,0.14872694,0.134953976,0.138931036,0.128701925,0.151789188,0.150434971,0.136632919,0.127532005,0.136078119,,,,,,,0.39791592732,73,reg,24,0,22,22,17,,,,,,,463.185935,Thu Jul 14 13:38:38 2016,0,1.303200006,bank,465.0213151,Thu Jul 14 13:38:40 2016,11,"[465.20829606056213, 465.36150217056274, 465.49548721313477, 465.6239650249481, 465.76668906211853, 465.91250109672546, 466.05688405036926, 466.1904752254486, 466.32544112205505, 466.4574840068817, 466.5926601886749]",left,467.46032,Thu Jul 14 13:38:42 2016,1,PROV007,59.78709696,PSAP_PRO_V,2016_Jul_14_1331,A,,463.185935,465.2082961,465.3615022,465.4954872,465.623965,465.7666891,465.9125011,466.0568841,466.1904752,466.3254411,466.457484,466.5926602,,,,,,,,2.022361041,0.15320611,0.133985043,0.128477812,0.142724037,0.145812035,0.144382954,0.133591175,0.134965897,0.132042885,0.135176182,,,,,,,0.30970228852,72,reg,23,0,23,23,76,,,,,,,467.46155,Thu Jul 14 13:38:42 2016,0,1.222286224,bank,469.2169802,Thu Jul 14 13:38:44 2016,11,"[469.44871401786804, 469.5876622200012, 469.73116517066956, 469.8711841106415, 470.0164620876312, 470.16549706459045, 470.30035519599915, 470.439120054245, 470.60135221481323, 470.72008204460144, 470.85034918785095]",left,471.7361872,Thu Jul 14 13:38:47 2016,1,PROV007,59.78709696,PSAP_PRO_V,2016_Jul_14_1331,A,,467.46155,469.448714,469.5876622,469.7311652,469.8711841,470.0164621,470.1654971,470.3003552,470.4391201,470.6013522,470.720082,470.8503492,,,,,,,,1.987164021,0.138948202,0.143502951,0.14001894,0.145277977,0.149034977,0.134858131,0.138764858,0.162232161,0.11872983,0.130267143,,,,,,,0.30807265417,24,reg,16,0,24,24,4,,,,,,,471.7374482,Thu Jul 14 13:38:47 2016,0,1.303559065,bank,473.5743082,Thu Jul 14 13:38:48 2016,12,"[473.77487111091614, 473.9271011352539, 474.0737872123718, 474.20739817619324, 474.35759019851685, 474.49098801612854, 474.64321517944336, 474.81040120124817, 475.07066202163696, 475.21586322784424, 475.35976099967957, 475.49511313438416]",left,476.2286401,Thu Jul 14 13:38:51 2016,1,PROV007,59.78709696,PSAP_PRO_V,2016_Jul_14_1331,A,,471.7374482,473.7748711,473.9271011,474.0737872,474.2073982,474.3575902,474.490988,474.6432152,474.8104012,475.070662,475.2158632,475.359761,475.4951131,,,,,,,2.037422896,0.152230024,0.146686077,0.133610964,0.150192022,0.133397818,0.152227163,0.167186022,0.26026082,0.145201206,0.143897772,0.135352135,,,,,,0.31313874344,38,reg,22,0,25,25,59,,,,,,,476.2300341,Thu Jul 14 13:38:51 2016,1,1.657284021,bank,478.4205222,Thu Jul 14 13:38:53 2016,11,"[478.58328318595886, 478.7186510562897, 478.85389614105225, 478.99060702323914, 479.169527053833, 479.30294013023376, 479.44242215156555, 479.5687692165375, 479.8542151451111, 479.99112200737, 480.12656021118164]",right,481.0053542,Thu Jul 14 13:38:56 2016,1,PROV007,59.78709696,PSAP_PRO_V,2016_Jul_14_1331,A,,476.2300341,478.5832832,478.7186511,478.8538961,478.990607,479.1695271,479.3029401,479.4424222,479.5687692,479.8542151,479.991122,480.1265602,,,,,,,,2.353249073,0.13536787,0.135245085,0.136710882,0.178920031,0.133413076,0.139482021,0.126347065,0.285445929,0.136906862,0.135438204,,,,,,,0.3542296459,20,reg,6,0,26,26,35,,,,,,,481.00634,Thu Jul 14 13:38:56 2016,0,1.488795996,bank,483.0283122,Thu Jul 14 13:38:58 2016,12,"[483.24417209625244, 483.38380122184753, 483.51064109802246, 483.63426399230957, 483.79590010643005, 483.928297996521, 484.063264131546, 484.2190580368042, 484.4977250099182, 484.64788603782654, 484.78720211982727, 484.94740319252014]",left,485.6492291,Thu Jul 14 13:39:01 2016,1,PROV007,59.78709696,PSAP_PRO_V,2016_Jul_14_1331,A,,481.00634,483.2441721,483.3838012,483.5106411,483.634264,483.7959001,483.928298,484.0632641,484.219058,484.497725,484.647886,484.7872021,484.9474032,,,,,,,2.237832069,0.139629126,0.126839876,0.123622894,0.161636114,0.13239789,0.134966135,0.155793905,0.278666973,0.150161028,0.139316082,0.160201073,,,,,,0.3284219347,49,reg,35,0,27,27,21,,,,,,,485.6505692,Thu Jul 14 13:39:01 2016,1,0.920943022,bank,487.1039152,Thu Jul 14 13:39:02 2016,11,"[487.2216172218323, 487.35891008377075, 487.50397515296936, 487.64314317703247, 487.7761700153351, 487.9431631565094, 488.0698981285095, 488.2071011066437, 488.3551881313324, 488.506254196167, 488.6396632194519]",right,489.5066402,Thu Jul 14 13:39:04 2016,1,PROV007,59.78709696,PSAP_PRO_V,2016_Jul_14_1331,A,,485.6505692,487.2216172,487.3589101,487.5039752,487.6431432,487.77617,487.9431632,488.0698981,488.2071011,488.3551881,488.5062542,488.6396632,,,,,,,,1.571048021,0.137292862,0.145065069,0.139168024,0.133026838,0.166993141,0.126734972,0.137202978,0.148087025,0.151066065,0.133409023,,,,,,,0.2717358230,19,reg,22,0,28,28,23,,,,,,,489.507616,Thu Jul 14 13:39:04 2016,1,1.152885914,bank,491.194144,Thu Jul 14 13:39:06 2016,11,"[491.344523191452, 491.49567222595215, 491.63934803009033, 491.79855012893677, 491.9515612125397, 492.1123721599579, 492.27869415283203, 492.4151220321655, 492.59892201423645, 492.71494722366333, 492.8717050552368]",right,493.7164991,Thu Jul 14 13:39:09 2016,1,PROV007,59.78709696,PSAP_PRO_V,2016_Jul_14_1331,A,,489.507616,491.3445232,491.4956722,491.639348,491.7985501,491.9515612,492.1123722,492.2786942,492.415122,492.598922,492.7149472,492.8717051,,,,,,,,1.836907148,0.151149035,0.143675804,0.159202099,0.153011084,0.160810947,0.166321993,0.136427879,0.183799982,0.116025209,0.156757832,,,,,,,0.30582627441,148,reg,23,0,29,29,55,,,,,,,493.7176912,Thu Jul 14 13:39:09 2016,1,1.272941828,bank,495.5235062,Thu Jul 14 13:39:10 2016,11,"[495.69718313217163, 495.83852910995483, 495.97700214385986, 496.11088609695435, 496.26517701148987, 496.42114901542664, 496.55835008621216, 496.7122631072998, 496.8572220802307, 497.00748109817505, 497.1563620567322]",right,498.008939,Thu Jul 14 13:39:13 2016,1,PROV007,59.78709696,PSAP_PRO_V,2016_Jul_14_1331,A,,493.7176912,495.6971831,495.8385291,495.9770021,496.1108861,496.265177,496.421149,496.5583501,496.7122631,496.8572221,497.0074811,497.1563621,,,,,,,,1.979491949,0.141345978,0.138473034,0.133883953,0.154290915,0.155972004,0.137201071,0.153913021,0.144958973,0.150259018,0.148880959,,,,,,,0.31260644322,51,reg,20,0,30,30,15,,,,,,,498.0102851,Thu Jul 14 13:39:13 2016,1,1.102935076,bank,499.6453302,Thu Jul 14 13:39:15 2016,10,"[499.8302631378174, 499.962455034256, 500.1123831272125, 500.27438712120056, 500.5869631767273, 500.7308552265167, 500.8491539955139, 500.9993669986725, 501.1386752128601, 501.28207421302795]",right,502.2865281,Thu Jul 14 13:39:17 2016,1,PROV007,59.78709696,PSAP_PRO_V,2016_Jul_14_1331,A,,498.0102851,499.8302631,499.962455,500.1123831,500.2743871,500.5869632,500.7308552,500.849154,500.999367,501.1386752,501.2820742,,,,,,,,,1.819977999,0.132191896,0.149928093,0.162003994,0.312576056,0.14389205,0.118298769,0.150213003,0.139308214,0.143399,,,,,,,,0.32717890765,54,reg,36,0,31,31,51,,,,,,,502.2872062,Thu Jul 14 13:39:17 2016,1,1.453580141,bank,504.2719772,Thu Jul 14 13:39:19 2016,12,"[504.4231262207031, 504.56189799308777, 504.7059202194214, 504.85740303993225, 504.9914221763611, 505.12479519844055, 505.29040813446045, 505.40871000289917, 505.57598519325256, 505.71896600723267, 505.8449490070343, 505.99867010116577]",right,506.7271421,Thu Jul 14 13:39:22 2016,1,PROV007,59.78709696,PSAP_PRO_V,2016_Jul_14_1331,A,,502.2872062,504.4231262,504.561898,504.7059202,504.857403,504.9914222,505.1247952,505.2904081,505.40871,505.5759852,505.718966,505.844949,505.9986701,,,,,,,2.135920048,0.138771772,0.144022226,0.151482821,0.134019136,0.133373022,0.165612936,0.118301868,0.16727519,0.142980814,0.125983,0.153721094,,,,,,0.30928866174,24,reg,33,0,32,32,70,,,,,,,506.7285292,Thu Jul 14 13:39:22 2016,1,1.724677086,steal,508.985882,Thu Jul 14 13:39:24 2016,12,"[509.2050859928131, 509.3492832183838, 509.48604011535645, 509.63439321517944, 509.7899181842804, 509.9353201389313, 510.09095215797424, 510.2208151817322, 510.3695890903473, 510.49574613571167, 510.61846899986267, 510.7921841144562]",left,511.504487,Thu Jul 14 13:39:26 2016,1,PROV007,59.78709696,PSAP_PRO_V,2016_Jul_14_1331,A,,506.7285292,509.205086,509.3492832,509.4860401,509.6343932,509.7899182,509.9353201,510.0909522,510.2208152,510.3695891,510.4957461,510.618469,510.7921841,,,,,,,2.476556778,0.144197226,0.136756897,0.1483531,0.155524969,0.145401955,0.155632019,0.129863024,0.148773909,0.126157045,0.122722864,0.173715115,,,,,,0.33863790830,15,catch,75,0,33,33,88,,,,,,,511.5057552,Thu Jul 14 13:39:26 2016,1,0.569469929,bank,512.608556,Thu Jul 14 13:39:28 2016,10,"[512.7624311447144, 512.8930850028992, 513.0470271110535, 513.2016911506653, 513.3411581516266, 513.5021281242371, 513.6313931941986, 513.7917652130127, 513.9363632202148, 514.0943191051483]",right,515.0971291,Thu Jul 14 13:39:30 2016,1,PROV007,59.78709696,PSAP_PRO_V,2016_Jul_14_1331,A,,511.5057552,512.7624311,512.893085,513.0470271,513.2016912,513.3411582,513.5021281,513.6313932,513.7917652,513.9363632,514.0943191,,,,,,,,,1.256675959,0.130653858,0.153942108,0.15466404,0.139467001,0.160969973,0.12926507,0.160372019,0.144598007,0.157955885,,,,,,,,0.25885639236,89,reg,22,0,34,34,50,,,,,,,515.0977972,Thu Jul 14 13:39:30 2016,0,1.453485966,bank,517.082726,Thu Jul 14 13:39:32 2016,11,"[517.3029901981354, 517.4502840042114, 517.5899441242218, 517.7112421989441, 517.8519761562347, 517.9848051071167, 518.1359000205994, 518.2742211818695, 518.4047532081604, 518.5260682106018, 518.6870360374451]",left,519.5556512,Thu Jul 14 13:39:34 2016,1,PROV007,59.78709696,PSAP_PRO_V,2016_Jul_14_1331,A,,515.0977972,517.3029902,517.450284,517.5899441,517.7112422,517.8519762,517.9848051,518.1359,518.2742212,518.4047532,518.5260682,518.687036,,,,,,,,2.205193043,0.147293806,0.13966012,0.121298075,0.140733957,0.132828951,0.151094913,0.138321161,0.130532026,0.121315002,0.160967827,,,,,,,0.32629444435,40,reg,26,0,35,35,20,,,,,,,519.55688,Thu Jul 14 13:39:34 2016,1,1.353289127,bank,521.4420171,Thu Jul 14 13:39:36 2016,11,"[521.5819001197815, 521.7105350494385, 521.8627161979675, 522.0127620697021, 522.1766560077667, 522.3100662231445, 522.447124004364, 522.5958831310272, 522.7276790142059, 522.8629381656647, 522.9958171844482]",right,523.8641331,Thu Jul 14 13:39:39 2016,1,PROV007,59.78709696,PSAP_PRO_V,2016_Jul_14_1331,A,,519.55688,521.5819001,521.710535,521.8627162,522.0127621,522.176656,522.3100662,522.447124,522.5958831,522.727679,522.8629382,522.9958172,,,,,,,,2.025020123,0.12863493,0.152181149,0.150045872,0.163893938,0.133410215,0.137057781,0.148759127,0.131795883,0.135259151,0.132879019,,,,,,,0.31263065356,111,reg,31,0,36,36,56,,,,,,,523.8654072,Thu Jul 14 13:39:39 2016,1,1.286590099,bank,525.684339,Thu Jul 14 13:39:41 2016,10,"[525.8077700138092, 525.9524450302124, 526.0958390235901, 526.2256391048431, 526.3583090305328, 526.4855771064758, 526.6375651359558, 526.7709150314331, 526.9099960327148, 527.0369250774384]",right,528.0441861,Thu Jul 14 13:39:43 2016,1,PROV007,59.78709696,PSAP_PRO_V,2016_Jul_14_1331,A,,523.8654072,525.80777,525.952445,526.095839,526.2256391,526.358309,526.4855771,526.6375651,526.770915,526.909996,527.0369251,,,,,,,,,1.942362786,0.144675016,0.143393993,0.129800081,0.132669926,0.127268076,0.151988029,0.133349895,0.139081001,0.126929045,,,,,,,,0.31715178530,8,reg,20,0,37,37,28,,,,,,,528.0451672,Thu Jul 14 13:39:43 2016,1,2.659240007,bank,531.2323632,Thu Jul 14 13:39:46 2016,11,"[531.3533501625061, 531.4976100921631, 531.6362571716309, 531.7817330360413, 531.9211430549622, 532.0637090206146, 532.1983752250671, 532.3347680568695, 532.476077079773, 532.6153872013092, 532.7672560214996]",right,533.6183722,Thu Jul 14 13:39:49 2016,1,PROV007,59.78709696,PSAP_PRO_V,2016_Jul_14_1331,A,,528.0451672,531.3533502,531.4976101,531.6362572,531.781733,531.9211431,532.063709,532.1983752,532.3347681,532.4760771,532.6153872,532.767256,,,,,,,,3.308182955,0.14425993,0.138647079,0.145475864,0.139410019,0.142565966,0.134666204,0.136392832,0.141309023,0.139310122,0.15186882,,,,,,,0.42928080151,17,reg,34,0,38,38,39,,,,,,,533.6196902,Thu Jul 14 13:39:49 2016,0,1.570528984,steal,535.7224002,Thu Jul 14 13:39:51 2016,12,"[535.9576032161713, 536.0895521640778, 536.2129850387573, 536.3414790630341, 536.480749130249, 536.6240680217743, 536.7518742084503, 536.8921790122986, 537.0320360660553, 537.1599531173706, 537.2864789962769, 537.3926131725311]",right,538.1603961,Thu Jul 14 13:39:53 2016,1,PROV007,59.78709696,PSAP_PRO_V,2016_Jul_14_1331,A,,533.6196902,535.9576032,536.0895522,536.212985,536.3414791,536.4807491,536.624068,536.7518742,536.892179,537.0320361,537.1599531,537.286479,537.3926132,,,,,,,2.337913036,0.131948948,0.123432875,0.128494024,0.139270067,0.143318892,0.127806187,0.140304804,0.139857054,0.127917051,0.126525879,0.106134176,,,,,,0.31441024923,22,reg,22,0,39,39,6,,,,,,,538.1613641,Thu Jul 14 13:39:53 2016,0,1.00434804,bank,539.6990991,Thu Jul 14 13:39:55 2016,11,"[539.931077003479, 540.0675160884857, 540.2222762107849, 540.348217010498, 540.4765901565552, 540.6055982112885, 540.7436110973358, 540.9508571624756, 541.0063750743866, 541.1503901481628, 541.3188841342926]",left,542.1531072,Thu Jul 14 13:39:57 2016,1,PROV007,59.78709696,PSAP_PRO_V,2016_Jul_14_1331,A,,538.1613641,539.931077,540.0675161,540.2222762,540.348217,540.4765902,540.6055982,540.7436111,540.9508572,541.0063751,541.1503901,541.3188841,,,,,,,,1.769712924,0.136439085,0.154760122,0.1259408,0.128373146,0.129008055,0.138012886,0.207246065,0.055517912,0.144015074,0.168493986,,,,,,,0.28704727822,2,catch,24,0,40,40,83,,,,,,,542.1544271,Thu Jul 14 13:39:57 2016,1,1.022763014,bank,543.7099912,Thu Jul 14 13:39:59 2016,11,"[543.8457260131836, 543.9727220535278, 544.1248500347137, 544.2566711902618, 544.4087960720062, 544.5239582061768, 544.7095282077789, 544.9919271469116, 545.1321251392365, 545.2772121429443, 545.4206681251526]",right,546.277673,Thu Jul 14 13:40:01 2016,1,PROV007,59.78709696,PSAP_PRO_V,2016_Jul_14_1331,A,,542.1544271,543.845726,543.9727221,544.12485,544.2566712,544.4087961,544.5239582,544.7095282,544.9919271,545.1321251,545.2772121,545.4206681,,,,,,,,1.691298961,0.12699604,0.152127981,0.131821156,0.152124882,0.115162134,0.185570002,0.282398939,0.140197992,0.145087004,0.143455982,,,,,,,0.29693100714,7,reg,9,0,41,41,34,,,,,,,546.278666,Thu Jul 14 13:40:01 2016,0,1.303205967,bank,548.1153352,Thu Jul 14 13:40:03 2016,11,"[548.3097620010376, 548.4841170310974, 548.6161210536957, 548.7564220428467, 548.8851840496063, 549.0614931583405, 549.190728187561, 549.3343801498413, 549.4787640571594, 549.6365990638733, 549.8132600784302]",left,550.6378701,Thu Jul 14 13:40:06 2016,1,PROV007,59.78709696,PSAP_PRO_V,2016_Jul_14_1331,A,,546.278666,548.309762,548.484117,548.6161211,548.756422,548.8851841,549.0614932,549.1907282,549.3343802,549.4787641,549.6365991,549.8132601,,,,,,,,2.031095982,0.17435503,0.132004023,0.140300989,0.128762007,0.176309109,0.129235029,0.143651962,0.144383907,0.157835007,0.176661015,,,,,,,0.32132673320,3,reg,18,0,42,42,10,,,,,,,550.6390591,Thu Jul 14 13:40:06 2016,1,2.038093805,bank,553.2094741,Thu Jul 14 13:40:08 2016,11,"[553.3494341373444, 553.4832060337067, 553.628172159195, 553.7662830352783, 553.9107780456543, 554.0457491874695, 554.1962740421295, 554.3368411064148, 554.4853930473328, 554.6231632232666, 554.7661051750183]",right,555.6317761,Thu Jul 14 13:40:11 2016,1,PROV007,59.78709696,PSAP_PRO_V,2016_Jul_14_1331,A,,550.6390591,553.3494341,553.483206,553.6281722,553.766283,553.910778,554.0457492,554.196274,554.3368411,554.485393,554.6231632,554.7661052,,,,,,,,2.71037507,0.133771896,0.144966125,0.138110876,0.14449501,0.134971142,0.150524855,0.140567064,0.148551941,0.137770176,0.142941952,,,,,,,0.3751860139,18,reg,26,0,43,43,40,,,,,,,555.6330962,Thu Jul 14 13:40:11 2016,1,0.985902071,bank,557.1514912,Thu Jul 14 13:40:12 2016,12,"[557.2846331596375, 557.4363651275635, 557.5796282291412, 557.7089171409607, 557.852452993393, 558.0362031459808, 558.1726841926575, 558.3215720653534, 558.4704802036285, 558.6558082103729, 558.7729182243347, 558.9230031967163]",right,559.6571372,Thu Jul 14 13:40:15 2016,1,PROV007,59.78709696,PSAP_PRO_V,2016_Jul_14_1331,A,,555.6330962,557.2846332,557.4363651,557.5796282,557.7089171,557.852453,558.0362031,558.1726842,558.3215721,558.4704802,558.6558082,558.7729182,558.9230032,,,,,,,1.651536942,0.151731968,0.143263102,0.129288912,0.143535852,0.183750153,0.136481047,0.148887873,0.148908138,0.185328007,0.117110014,0.150084972,,,,,,0.27415891562,13,reg,41,0,44,44,33,,,,,,,559.6583252,Thu Jul 14 13:40:15 2016,0,1.005987883,bank,561.1973081,Thu Jul 14 13:40:16 2016,11,"[561.3799180984497, 561.5170609951019, 561.6545090675354, 561.7810831069946, 561.901221036911, 562.0384521484375, 562.1725242137909, 562.3300921916962, 562.4690690040588, 562.6081440448761, 562.7980391979218]",left,563.6322262,Thu Jul 14 13:40:19 2016,1,PROV007,59.78709696,PSAP_PRO_V,2016_Jul_14_1331,A,,559.6583252,561.3799181,561.517061,561.6545091,561.7810831,561.901221,562.0384521,562.1725242,562.3300922,562.469069,562.608144,562.7980392,,,,,,,,1.721592903,0.137142897,0.137448072,0.126574039,0.12013793,0.137231112,0.134072065,0.157567978,0.138976812,0.139075041,0.189895153,,,,,,,0.28542854647,39,reg,43,0,45,45,14,,,,,,,563.6335132,Thu Jul 14 13:40:19 2016,1,1.336616993,bank,565.5025961,Thu Jul 14 13:40:20 2016,11,"[565.6302220821381, 565.7730309963226, 565.9196112155914, 566.0715022087097, 566.2201461791992, 566.3720982074738, 566.5210421085358, 566.7897400856018, 566.9401841163635, 567.0735430717468, 567.2071402072906]",right,568.0750442,Thu Jul 14 13:40:23 2016,1,PROV007,59.78709696,PSAP_PRO_V,2016_Jul_14_1331,A,,563.6335132,565.6302221,565.773031,565.9196112,566.0715022,566.2201462,566.3720982,566.5210421,566.7897401,566.9401841,567.0735431,567.2071402,,,,,,,,1.99670887,0.142808914,0.146580219,0.151890993,0.14864397,0.151952028,0.148943901,0.268697977,0.150444031,0.133358955,0.133597136,,,,,,,0.32487518115,63,reg,14,0,46,46,13,,,,,,,568.0763531,Thu Jul 14 13:40:23 2016,0,0.88572979,bank,569.494596,Thu Jul 14 13:40:24 2016,11,"[569.6959850788116, 569.8387870788574, 569.979984998703, 570.130056142807, 570.2634711265564, 570.412525177002, 570.5326151847839, 570.6530120372772, 570.7967851161957, 570.9487299919128, 571.0824401378632]",left,571.9499612,Thu Jul 14 13:40:27 2016,1,PROV007,59.78709696,PSAP_PRO_V,2016_Jul_14_1331,A,,568.0763531,569.6959851,569.8387871,569.979985,570.1300561,570.2634711,570.4125252,570.5326152,570.653012,570.7967851,570.94873,571.0824401,,,,,,,,1.619632006,0.142802,0.14119792,0.150071144,0.133414984,0.14905405,0.120090008,0.120396852,0.143773079,0.151944876,0.133710146,,,,,,,0.27328064222,23,reg,21,0,47,47,2,,,,,,,571.9512641,Thu Jul 14 13:40:27 2016,1,1.089330912,bank,573.5733771,Thu Jul 14 13:40:28 2016,11,"[573.7228770256042, 573.8597521781921, 574.0134510993958, 574.1607360839844, 574.3056402206421, 574.4275979995728, 574.6160809993744, 574.7719352245331, 574.9090781211853, 575.0623440742493, 575.2391731739044]",right,576.075418,Thu Jul 14 13:40:31 2016,1,PROV007,59.78709696,PSAP_PRO_V,2016_Jul_14_1331,A,,571.9512641,573.722877,573.8597522,574.0134511,574.1607361,574.3056402,574.427598,574.616081,574.7719352,574.9090781,575.0623441,575.2391732,,,,,,,,1.771612883,0.136875153,0.153698921,0.147284985,0.144904137,0.121957779,0.188483,0.155854225,0.137142897,0.153265953,0.1768291,,,,,,,0.29890082132,3,reg,29,0,48,48,9,,,,,,,576.0767241,Thu Jul 14 13:40:31 2016,0,0.955975056,bank,577.5652392,Thu Jul 14 13:40:32 2016,11,"[577.7895560264587, 577.9469261169434, 578.0857441425323, 578.2308120727539, 578.3741171360016, 578.5164260864258, 578.663675069809, 578.8037021160126, 578.9708120822906, 579.1327941417694, 579.2681441307068]",left,580.1336062,Thu Jul 14 13:40:35 2016,1,PROV007,59.78709696,PSAP_PRO_V,2016_Jul_14_1331,A,,576.0767241,577.789556,577.9469261,578.0857441,578.2308121,578.3741171,578.5164261,578.6636751,578.8037021,578.9708121,579.1327941,579.2681441,,,,,,,,1.712831974,0.15737009,0.138818026,0.14506793,0.143305063,0.14230895,0.147248983,0.140027046,0.167109966,0.161982059,0.135349989,,,,,,,0.2901290988,32,reg,4,0,49,49,61,,,,,,,580.134989,Thu Jul 14 13:40:35 2016,0,2.425388098,bank,583.092818,Thu Jul 14 13:40:38 2016,11,"[583.2247891426086, 583.3843522071838, 583.5420410633087, 583.6922800540924, 583.8148720264435, 583.9650950431824, 584.1201510429382, 584.2532150745392, 584.5275731086731, 584.6780140399933, 584.888426065445]",left,585.6783421,Thu Jul 14 13:40:41 2016,1,PROV007,59.78709696,PSAP_PRO_V,2016_Jul_14_1331,A,,580.134989,583.2247891,583.3843522,583.5420411,583.6922801,583.814872,583.965095,584.120151,584.2532151,584.5275731,584.678014,584.8884261,,,,,,,,3.08980012,0.159563065,0.157688856,0.150238991,0.122591972,0.150223017,0.155056,0.133064032,0.274358034,0.150440931,0.210412025,,,,,,,0.43213064