"","stealTrial","earnTrial","trials.thisRepN","trials.thisTrialN","trials.thisN","trials.thisIndex","instr_response.keys","instr_response.rt","key_resp_2.keys","key_resp_2.rt","introKey.keys","introKey.rt","Trial.Start","Trial.Start.Wall","choiceResponse.keys","choiceResponse.rt","choiceType","Trial.End","Trial.End.Wall","nKeyPress","gamePressTimes","riskDisplaySide","session","participant","frameRate","expName","date","type","X","stealTrial","earnTrial","trials_thisRepN","trials_thisTrialN","trials_thisN","trials_thisIndex","instr_response_keys","instr_response_rt","key_resp_2_keys","key_resp_2_rt","introKey_keys","introKey_rt","Trial_Start","Trial_Start_Wall","choiceResponse_keys","choiceResponse_rt","choiceType","Trial_End","Trial_End_Wall","nKeyPress","gamePressTimes","riskDisplaySide","session","participant","frameRate","expName","date","type","PressTime_1","PressTime_2","PressTime_3","PressTime_4","PressTime_5","PressTime_6","PressTime_7","PressTime_8","PressTime_9","PressTime_10","PressTime_11","PressTime_12","PressTime_13","PressTime_14","PressTime_15","PressTime_16","PressTime_1_Diff","PressTime_2_Diff","PressTime_3_Diff","PressTime_4_Diff","PressTime_5_Diff","PressTime_6_Diff","PressTime_7_Diff","PressTime_8_Diff","PressTime_9_Diff","PressTime_10_Diff","PressTime_11_Diff","PressTime_12_Diff","PressTime_13_Diff","PressTime_14_Diff","PressTime_15_Diff","PressTime_16_Diff","PressTimeDiffMean"
"4",16.56,16.4,0,0,0,10,"",NA,"",NA,"",NA,138.58194685,"Wed Dec  9 11:03:55 2015",0,1.7381298542,"bank",143.538833857,"Wed Dec  9 11:04:00 2015",11,"[141.20469880104065, 141.3583059310913, 141.51619601249695, 141.6662838459015, 141.80606698989868, 141.94997191429138, 142.10020899772644, 142.26734399795532, 142.40436387062073, 142.5346839427948, 142.66866302490234]","left",1,"PROA001",59.8705610638,"PSAP_PRO_A","2015_Dec_09_1102","A",NA,16.56,16.4,0,0,0,10,NA,NA,NA,NA,NA,NA,138.5819469,"Wed Dec  9 11:03:55 2015",0,1.738129854,"bank",143.5388339,"Wed Dec  9 11:04:00 2015",11,"[141.20469880104065, 141.3583059310913, 141.51619601249695, 141.6662838459015, 141.80606698989868, 141.94997191429138, 142.10020899772644, 142.26734399795532, 142.40436387062073, 142.5346839427948, 142.66866302490234]","left",1,"PROA001",59.87056106,"PSAP_PRO_A","2015_Dec_09_1102","A",138.5819469,141.2046988,141.3583059,141.516196,141.6662838,141.806067,141.9499719,142.100209,142.267344,142.4043639,142.5346839,142.668663,NA,NA,NA,NA,NA,2.622751951,0.15360713,0.157890081,0.150087833,0.139783144,0.143904924,0.150237083,0.167135,0.137019873,0.130320072,0.133979082,NA,NA,NA,NA,0.371519652
"5",32.95,24.41,0,1,1,23,"",NA,"",NA,"",NA,143.539964914,"Wed Dec  9 11:04:00 2015",1,1.33748912811,"bank",148.136567831,"Wed Dec  9 11:04:05 2015",10,"[145.774817943573, 145.92499899864197, 146.0756130218506, 146.23241686820984, 146.38167881965637, 146.53257584571838, 146.6769289970398, 146.8332188129425, 146.98082494735718, 147.12823796272278]","right",1,"PROA001",59.8705610638,"PSAP_PRO_A","2015_Dec_09_1102","A",NA,32.95,24.41,0,1,1,23,NA,NA,NA,NA,NA,NA,143.5399649,"Wed Dec  9 11:04:00 2015",1,1.337489128,"bank",148.1365678,"Wed Dec  9 11:04:05 2015",10,"[145.774817943573, 145.92499899864197, 146.0756130218506, 146.23241686820984, 146.38167881965637, 146.53257584571838, 146.6769289970398, 146.8332188129425, 146.98082494735718, 147.12823796272278]","right",1,"PROA001",59.87056106,"PSAP_PRO_A","2015_Dec_09_1102","A",143.5399649,145.7748179,145.924999,146.075613,146.2324169,146.3816788,146.5325758,146.676929,146.8332188,146.9808249,147.128238,NA,NA,NA,NA,NA,NA,2.23485303,0.150181055,0.150614023,0.156803846,0.149261951,0.150897026,0.144353151,0.156289816,0.147606134,0.147413015,NA,NA,NA,NA,NA,0.358827305
"6",22.45,24.7,0,2,2,1,"",NA,"",NA,"",NA,148.137472868,"Wed Dec  9 11:04:05 2015",1,0.469137191772,"bank",151.841285944,"Wed Dec  9 11:04:08 2015",10,"[149.44899892807007, 149.60004496574402, 149.76671481132507, 149.90970396995544, 150.06747388839722, 150.2179880142212, 150.35755896568298, 150.5181109905243, 150.67566895484924, 150.82521986961365]","right",1,"PROA001",59.8705610638,"PSAP_PRO_A","2015_Dec_09_1102","A",NA,22.45,24.7,0,2,2,1,NA,NA,NA,NA,NA,NA,148.1374729,"Wed Dec  9 11:04:05 2015",1,0.469137192,"bank",151.8412859,"Wed Dec  9 11:04:08 2015",10,"[149.44899892807007, 149.60004496574402, 149.76671481132507, 149.90970396995544, 150.06747388839722, 150.2179880142212, 150.35755896568298, 150.5181109905243, 150.67566895484924, 150.82521986961365]","right",1,"PROA001",59.87056106,"PSAP_PRO_A","2015_Dec_09_1102","A",148.1374729,149.4489989,149.600045,149.7667148,149.909704,150.0674739,150.217988,150.357559,150.518111,150.675669,150.8252199,NA,NA,NA,NA,NA,NA,1.31152606,0.151046038,0.166669846,0.142989159,0.157769918,0.150514126,0.139570951,0.160552025,0.157557964,0.149550915,NA,NA,NA,NA,NA,0.2687747
"7",22.93,22.7,0,3,3,11,"",NA,"",NA,"",NA,151.841889858,"Wed Dec  9 11:04:08 2015",0,0.636105060577,"bank",155.633303881,"Wed Dec  9 11:04:12 2015",10,"[153.22402787208557, 153.3803060054779, 153.55857300758362, 153.70822596549988, 153.87590980529785, 153.99580001831055, 154.1657199859619, 154.31537890434265, 154.46036887168884, 154.61670899391174]","left",1,"PROA001",59.8705610638,"PSAP_PRO_A","2015_Dec_09_1102","A",NA,22.93,22.7,0,3,3,11,NA,NA,NA,NA,NA,NA,151.8418899,"Wed Dec  9 11:04:08 2015",0,0.636105061,"bank",155.6333039,"Wed Dec  9 11:04:12 2015",10,"[153.22402787208557, 153.3803060054779, 153.55857300758362, 153.70822596549988, 153.87590980529785, 153.99580001831055, 154.1657199859619, 154.31537890434265, 154.46036887168884, 154.61670899391174]","left",1,"PROA001",59.87056106,"PSAP_PRO_A","2015_Dec_09_1102","A",151.8418899,153.2240279,153.380306,153.558573,153.708226,153.8759098,153.9958,154.16572,154.3153789,154.4603689,154.616709,NA,NA,NA,NA,NA,NA,1.382138014,0.156278133,0.178267002,0.149652958,0.16768384,0.119890213,0.169919968,0.149658918,0.144989967,0.156340122,NA,NA,NA,NA,NA,0.277481914
"8",44.92,17.97,0,4,4,83,"",NA,"",NA,"",NA,155.633946896,"Wed Dec  9 11:04:12 2015",1,0.20103096962,"bank",158.973178864,"Wed Dec  9 11:04:15 2015",10,"[156.4808588027954, 156.65425181388855, 156.82082295417786, 156.98228979110718, 157.1493809223175, 157.3164038658142, 157.4729290008545, 157.63720202445984, 157.80350995063782, 157.96789479255676]","right",1,"PROA001",59.8705610638,"PSAP_PRO_A","2015_Dec_09_1102","A",NA,44.92,17.97,0,4,4,83,NA,NA,NA,NA,NA,NA,155.6339469,"Wed Dec  9 11:04:12 2015",1,0.20103097,"bank",158.9731789,"Wed Dec  9 11:04:15 2015",10,"[156.4808588027954, 156.65425181388855, 156.82082295417786, 156.98228979110718, 157.1493809223175, 157.3164038658142, 157.4729290008545, 157.63720202445984, 157.80350995063782, 157.96789479255676]","right",1,"PROA001",59.87056106,"PSAP_PRO_A","2015_Dec_09_1102","A",155.6339469,156.4808588,156.6542518,156.820823,156.9822898,157.1493809,157.3164039,157.472929,157.637202,157.80351,157.9678948,NA,NA,NA,NA,NA,NA,0.846911907,0.173393011,0.16657114,0.161466837,0.167091131,0.167022943,0.156525135,0.164273024,0.166307926,0.164384842,NA,NA,NA,NA,NA,0.23339479
"9",37.79,75.58,0,5,5,5,"",NA,"",NA,"",NA,158.973791838,"Wed Dec  9 11:04:15 2015",1,0.168071985245,"bank",162.233181953,"Wed Dec  9 11:04:19 2015",10,"[159.78796696662903, 159.9585099220276, 160.12203097343445, 160.289452791214, 160.44505190849304, 160.60642981529236, 160.77383589744568, 160.90778589248657, 161.0805299282074, 161.22480487823486]","right",1,"PROA001",59.8705610638,"PSAP_PRO_A","2015_Dec_09_1102","A",NA,37.79,75.58,0,5,5,5,NA,NA,NA,NA,NA,NA,158.9737918,"Wed Dec  9 11:04:15 2015",1,0.168071985,"bank",162.233182,"Wed Dec  9 11:04:19 2015",10,"[159.78796696662903, 159.9585099220276, 160.12203097343445, 160.289452791214, 160.44505190849304, 160.60642981529236, 160.77383589744568, 160.90778589248657, 161.0805299282074, 161.22480487823486]","right",1,"PROA001",59.87056106,"PSAP_PRO_A","2015_Dec_09_1102","A",158.9737918,159.787967,159.9585099,160.122031,160.2894528,160.4450519,160.6064298,160.7738359,160.9077859,161.0805299,161.2248049,NA,NA,NA,NA,NA,NA,0.814175129,0.170542955,0.163521051,0.167421818,0.155599117,0.161377907,0.167406082,0.133949995,0.172744036,0.14427495,NA,NA,NA,NA,NA,0.225101304
"10",40.84,22.69,0,6,6,61,"",NA,"",NA,"",NA,162.234061003,"Wed Dec  9 11:04:19 2015",0,0.118412017822,"bank",165.540279865,"Wed Dec  9 11:04:22 2015",10,"[163.08414697647095, 163.25110793113708, 163.41260600090027, 163.57926988601685, 163.73952794075012, 163.90295600891113, 164.08047795295715, 164.23689579963684, 164.3872148990631, 164.53134298324585]","left",1,"PROA001",59.8705610638,"PSAP_PRO_A","2015_Dec_09_1102","A",NA,40.84,22.69,0,6,6,61,NA,NA,NA,NA,NA,NA,162.234061,"Wed Dec  9 11:04:19 2015",0,0.118412018,"bank",165.5402799,"Wed Dec  9 11:04:22 2015",10,"[163.08414697647095, 163.25110793113708, 163.41260600090027, 163.57926988601685, 163.73952794075012, 163.90295600891113, 164.08047795295715, 164.23689579963684, 164.3872148990631, 164.53134298324585]","left",1,"PROA001",59.87056106,"PSAP_PRO_A","2015_Dec_09_1102","A",162.234061,163.084147,163.2511079,163.412606,163.5792699,163.7395279,163.902956,164.080478,164.2368958,164.3872149,164.531343,NA,NA,NA,NA,NA,NA,0.850085973,0.166960955,0.16149807,0.166663885,0.160258055,0.163428068,0.177521944,0.156417847,0.150319099,0.144128084,NA,NA,NA,NA,NA,0.229728198
"11",14.61,9.74,0,7,7,44,"",NA,"",NA,"",NA,165.541170835,"Wed Dec  9 11:04:22 2015",1,0.485801935196,"bank",169.144826889,"Wed Dec  9 11:04:26 2015",10,"[166.6529610157013, 166.8030469417572, 166.980299949646, 167.14033579826355, 167.32106184959412, 167.48808598518372, 167.65467500686646, 167.8109908103943, 167.98182797431946, 168.13960194587708]","right",1,"PROA001",59.8705610638,"PSAP_PRO_A","2015_Dec_09_1102","A",NA,14.61,9.74,0,7,7,44,NA,NA,NA,NA,NA,NA,165.5411708,"Wed Dec  9 11:04:22 2015",1,0.485801935,"bank",169.1448269,"Wed Dec  9 11:04:26 2015",10,"[166.6529610157013, 166.8030469417572, 166.980299949646, 167.14033579826355, 167.32106184959412, 167.48808598518372, 167.65467500686646, 167.8109908103943, 167.98182797431946, 168.13960194587708]","right",1,"PROA001",59.87056106,"PSAP_PRO_A","2015_Dec_09_1102","A",165.5411708,166.652961,166.8030469,166.9803,167.1403358,167.3210619,167.488086,167.654675,167.8109908,167.981828,168.1396019,NA,NA,NA,NA,NA,NA,1.111790181,0.150085926,0.177253008,0.160035849,0.180726051,0.167024136,0.166589022,0.156315804,0.170837164,0.157773972,NA,NA,NA,NA,NA,0.259843111
"12",47.05,26.14,0,8,8,51,"",NA,"",NA,"",NA,169.145426989,"Wed Dec  9 11:04:26 2015",0,0.268637895584,"bank",172.618816853,"Wed Dec  9 11:04:29 2015",10,"[170.16365790367126, 170.31664395332336, 170.47777199745178, 170.66158890724182, 170.81126379966736, 170.98185896873474, 171.14585995674133, 171.31247091293335, 171.47994780540466, 171.6130359172821]","left",1,"PROA001",59.8705610638,"PSAP_PRO_A","2015_Dec_09_1102","A",NA,47.05,26.14,0,8,8,51,NA,NA,NA,NA,NA,NA,169.145427,"Wed Dec  9 11:04:26 2015",0,0.268637896,"bank",172.6188169,"Wed Dec  9 11:04:29 2015",10,"[170.16365790367126, 170.31664395332336, 170.47777199745178, 170.66158890724182, 170.81126379966736, 170.98185896873474, 171.14585995674133, 171.31247091293335, 171.47994780540466, 171.6130359172821]","left",1,"PROA001",59.87056106,"PSAP_PRO_A","2015_Dec_09_1102","A",169.145427,170.1636579,170.316644,170.477772,170.6615889,170.8112638,170.981859,171.14586,171.3124709,171.4799478,171.6130359,NA,NA,NA,NA,NA,NA,1.018230915,0.15298605,0.161128044,0.18381691,0.149674892,0.170595169,0.164000988,0.166610956,0.167476892,0.133088112,NA,NA,NA,NA,NA,0.246760893
"13",4.68,3.12,0,9,9,42,"",NA,"",NA,"",NA,172.619415998,"Wed Dec  9 11:04:29 2015",1,0.21791100502,"bank",176.062492847,"Wed Dec  9 11:04:33 2015",10,"[173.62705087661743, 173.78786492347717, 173.96808195114136, 174.11878991127014, 174.2858748435974, 174.4355537891388, 174.59247088432312, 174.7535548210144, 174.90386986732483, 175.05416893959045]","right",1,"PROA001",59.8705610638,"PSAP_PRO_A","2015_Dec_09_1102","A",NA,4.68,3.12,0,9,9,42,NA,NA,NA,NA,NA,NA,172.619416,"Wed Dec  9 11:04:29 2015",1,0.217911005,"bank",176.0624928,"Wed Dec  9 11:04:33 2015",10,"[173.62705087661743, 173.78786492347717, 173.96808195114136, 174.11878991127014, 174.2858748435974, 174.4355537891388, 174.59247088432312, 174.7535548210144, 174.90386986732483, 175.05416893959045]","right",1,"PROA001",59.87056106,"PSAP_PRO_A","2015_Dec_09_1102","A",172.619416,173.6270509,173.7878649,173.968082,174.1187899,174.2858748,174.4355538,174.5924709,174.7535548,174.9038699,175.0541689,NA,NA,NA,NA,NA,NA,1.007634879,0.160814047,0.180217028,0.15070796,0.167084932,0.149678946,0.156917095,0.161083937,0.150315046,0.150299072,NA,NA,NA,NA,NA,0.243475294
"14",30.56,27.78,0,10,10,13,"",NA,"",NA,"",NA,176.063397884,"Wed Dec  9 11:04:33 2015",1,0.818912029266,"bank",179.968319893,"Wed Dec  9 11:04:36 2015",10,"[177.50940799713135, 177.64267492294312, 177.81273078918457, 177.9803910255432, 178.1604299545288, 178.32743501663208, 178.46748185157776, 178.63491201400757, 178.78215193748474, 178.9553029537201]","right",1,"PROA001",59.8705610638,"PSAP_PRO_A","2015_Dec_09_1102","A",NA,30.56,27.78,0,10,10,13,NA,NA,NA,NA,NA,NA,176.0633979,"Wed Dec  9 11:04:33 2015",1,0.818912029,"bank",179.9683199,"Wed Dec  9 11:04:36 2015",10,"[177.50940799713135, 177.64267492294312, 177.81273078918457, 177.9803910255432, 178.1604299545288, 178.32743501663208, 178.46748185157776, 178.63491201400757, 178.78215193748474, 178.9553029537201]","right",1,"PROA001",59.87056106,"PSAP_PRO_A","2015_Dec_09_1102","A",176.0633979,177.509408,177.6426749,177.8127308,177.980391,178.16043,178.327435,178.4674819,178.634912,178.7821519,178.955303,NA,NA,NA,NA,NA,NA,1.446010113,0.133266926,0.170055866,0.167660236,0.180038929,0.167005062,0.140046835,0.167430162,0.147239923,0.173151016,NA,NA,NA,NA,NA,0.289190507
"15",55.04,24.46,0,11,11,78,"",NA,"",NA,"",NA,179.968973875,"Wed Dec  9 11:04:36 2015",0,0.235218048096,"bank",183.444857836,"Wed Dec  9 11:04:40 2015",10,"[180.92608189582825, 181.08313488960266, 181.26743984222412, 181.4343798160553, 181.6014368534088, 181.76804995536804, 181.94102096557617, 182.10210394859314, 182.25880599021912, 182.42941093444824]","left",1,"PROA001",59.8705610638,"PSAP_PRO_A","2015_Dec_09_1102","A",NA,55.04,24.46,0,11,11,78,NA,NA,NA,NA,NA,NA,179.9689739,"Wed Dec  9 11:04:36 2015",0,0.235218048,"bank",183.4448578,"Wed Dec  9 11:04:40 2015",10,"[180.92608189582825, 181.08313488960266, 181.26743984222412, 181.4343798160553, 181.6014368534088, 181.76804995536804, 181.94102096557617, 182.10210394859314, 182.25880599021912, 182.42941093444824]","left",1,"PROA001",59.87056106,"PSAP_PRO_A","2015_Dec_09_1102","A",179.9689739,180.9260819,181.0831349,181.2674398,181.4343798,181.6014369,181.76805,181.941021,182.1021039,182.258806,182.4294109,NA,NA,NA,NA,NA,NA,0.957108021,0.157052994,0.184304953,0.166939974,0.167057037,0.166613102,0.17297101,0.161082983,0.156702042,0.170604944,NA,NA,NA,NA,NA,0.246043706
"16",56.41,31.34,0,12,12,62,"",NA,"",NA,"",NA,183.445740938,"Wed Dec  9 11:04:40 2015",1,0.484862089157,"bank",187.066359997,"Wed Dec  9 11:04:44 2015",10,"[184.59700894355774, 184.7474398612976, 184.93104791641235, 185.0916759967804, 185.25209999084473, 185.429349899292, 185.57963395118713, 185.7466959953308, 185.89393091201782, 186.06043481826782]","right",1,"PROA001",59.8705610638,"PSAP_PRO_A","2015_Dec_09_1102","A",NA,56.41,31.34,0,12,12,62,NA,NA,NA,NA,NA,NA,183.4457409,"Wed Dec  9 11:04:40 2015",1,0.484862089,"bank",187.06636,"Wed Dec  9 11:04:44 2015",10,"[184.59700894355774, 184.7474398612976, 184.93104791641235, 185.0916759967804, 185.25209999084473, 185.429349899292, 185.57963395118713, 185.7466959953308, 185.89393091201782, 186.06043481826782]","right",1,"PROA001",59.87056106,"PSAP_PRO_A","2015_Dec_09_1102","A",183.4457409,184.5970089,184.7474399,184.9310479,185.091676,185.2521,185.4293499,185.579634,185.746696,185.8939309,186.0604348,NA,NA,NA,NA,NA,NA,1.151268006,0.150430918,0.183608055,0.16062808,0.160423994,0.177249908,0.150284052,0.167062044,0.147234917,0.166503906,NA,NA,NA,NA,NA,0.261469388
"17",47.88,31.92,0,13,13,43,"",NA,"",NA,"",NA,187.066957951,"Wed Dec  9 11:04:44 2015",0,0.418614149094,"bank",190.724075794,"Wed Dec  9 11:04:47 2015",10,"[188.26524090766907, 188.4216868877411, 188.58883094787598, 188.7494819164276, 188.8998019695282, 189.06688380241394, 189.23759198188782, 189.40104293823242, 189.551265001297, 189.7078139781952]","left",1,"PROA001",59.8705610638,"PSAP_PRO_A","2015_Dec_09_1102","A",NA,47.88,31.92,0,13,13,43,NA,NA,NA,NA,NA,NA,187.066958,"Wed Dec  9 11:04:44 2015",0,0.418614149,"bank",190.7240758,"Wed Dec  9 11:04:47 2015",10,"[188.26524090766907, 188.4216868877411, 188.58883094787598, 188.7494819164276, 188.8998019695282, 189.06688380241394, 189.23759198188782, 189.40104293823242, 189.551265001297, 189.7078139781952]","left",1,"PROA001",59.87056106,"PSAP_PRO_A","2015_Dec_09_1102","A",187.066958,188.2652409,188.4216869,188.5888309,188.7494819,188.899802,189.0668838,189.237592,189.4010429,189.551265,189.707814,NA,NA,NA,NA,NA,NA,1.198282957,0.15644598,0.16714406,0.160650969,0.150320053,0.167081833,0.170708179,0.163450956,0.150222063,0.156548977,NA,NA,NA,NA,NA,0.264085603
"18",22.2,21.98,0,14,14,12,"",NA,"",NA,"",NA,190.724704027,"Wed Dec  9 11:04:47 2015",0,0.568391084671,"bank",194.485721827,"Wed Dec  9 11:04:51 2015",10,"[192.07385897636414, 192.21329998970032, 192.37443494796753, 192.5304718017578, 192.691743850708, 192.84868788719177, 192.97582483291626, 193.14706587791443, 193.30932688713074, 193.47627902030945]","left",1,"PROA001",59.8705610638,"PSAP_PRO_A","2015_Dec_09_1102","A",NA,22.2,21.98,0,14,14,12,NA,NA,NA,NA,NA,NA,190.724704,"Wed Dec  9 11:04:47 2015",0,0.568391085,"bank",194.4857218,"Wed Dec  9 11:04:51 2015",10,"[192.07385897636414, 192.21329998970032, 192.37443494796753, 192.5304718017578, 192.691743850708, 192.84868788719177, 192.97582483291626, 193.14706587791443, 193.30932688713074, 193.47627902030945]","left",1,"PROA001",59.87056106,"PSAP_PRO_A","2015_Dec_09_1102","A",190.724704,192.073859,192.2133,192.3744349,192.5304718,192.6917439,192.8486879,192.9758248,193.1470659,193.3093269,193.476279,NA,NA,NA,NA,NA,NA,1.349154949,0.139441013,0.161134958,0.156036854,0.161272049,0.156944036,0.127136946,0.171241045,0.162261009,0.166952133,NA,NA,NA,NA,NA,0.275157499
"19",8.43,21.07,0,15,15,7,"",NA,"",NA,"",NA,194.486612797,"Wed Dec  9 11:04:51 2015",0,0.719668865204,"bank",198.593972921,"Wed Dec  9 11:04:55 2015",10,"[195.94818592071533, 196.09897780418396, 196.25874185562134, 196.40537285804749, 196.56659984588623, 196.72293901443481, 196.8767077922821, 197.0234658718109, 197.17091488838196, 197.57505893707275]","left",1,"PROA001",59.8705610638,"PSAP_PRO_A","2015_Dec_09_1102","A",NA,8.43,21.07,0,15,15,7,NA,NA,NA,NA,NA,NA,194.4866128,"Wed Dec  9 11:04:51 2015",0,0.719668865,"bank",198.5939729,"Wed Dec  9 11:04:55 2015",10,"[195.94818592071533, 196.09897780418396, 196.25874185562134, 196.40537285804749, 196.56659984588623, 196.72293901443481, 196.8767077922821, 197.0234658718109, 197.17091488838196, 197.57505893707275]","left",1,"PROA001",59.87056106,"PSAP_PRO_A","2015_Dec_09_1102","A",194.4866128,195.9481859,196.0989778,196.2587419,196.4053729,196.5665998,196.722939,196.8767078,197.0234659,197.1709149,197.5750589,NA,NA,NA,NA,NA,NA,1.461573124,0.150791883,0.159764051,0.146631002,0.161226988,0.156339169,0.153768778,0.14675808,0.147449017,0.404144049,NA,NA,NA,NA,NA,0.308844614
"20",47.59,21.15,0,16,16,75,"",NA,"",NA,"",NA,198.594863892,"Wed Dec  9 11:04:55 2015",0,0.435710906982,"bank",202.134693861,"Wed Dec  9 11:04:59 2015",10,"[199.76225686073303, 199.9071090221405, 200.06349897384644, 200.21078085899353, 200.36398887634277, 200.52504682540894, 200.66817378997803, 200.81857895851135, 200.96588683128357, 201.12633991241455]","left",1,"PROA001",59.8705610638,"PSAP_PRO_A","2015_Dec_09_1102","A",NA,47.59,21.15,0,16,16,75,NA,NA,NA,NA,NA,NA,198.5948639,"Wed Dec  9 11:04:55 2015",0,0.435710907,"bank",202.1346939,"Wed Dec  9 11:04:59 2015",10,"[199.76225686073303, 199.9071090221405, 200.06349897384644, 200.21078085899353, 200.36398887634277, 200.52504682540894, 200.66817378997803, 200.81857895851135, 200.96588683128357, 201.12633991241455]","left",1,"PROA001",59.87056106,"PSAP_PRO_A","2015_Dec_09_1102","A",198.5948639,199.7622569,199.907109,200.063499,200.2107809,200.3639889,200.5250468,200.6681738,200.818579,200.9658868,201.1263399,NA,NA,NA,NA,NA,NA,1.167392969,0.144852161,0.156389952,0.147281885,0.153208017,0.161057949,0.143126965,0.150405169,0.147307873,0.160453081,NA,NA,NA,NA,NA,0.253147602
"21",29.59,73.97,0,17,17,6,"",NA,"",NA,"",NA,202.135578871,"Wed Dec  9 11:04:59 2015",1,0.368856906891,"bank",205.62566781,"Wed Dec  9 11:05:02 2015",10,"[203.24712491035461, 203.39742994308472, 203.54812788963318, 203.69864583015442, 203.84841895103455, 204.0020408630371, 204.16581296920776, 204.31600093841553, 204.47641801834106, 204.6169798374176]","right",1,"PROA001",59.8705610638,"PSAP_PRO_A","2015_Dec_09_1102","A",NA,29.59,73.97,0,17,17,6,NA,NA,NA,NA,NA,NA,202.1355789,"Wed Dec  9 11:04:59 2015",1,0.368856907,"bank",205.6256678,"Wed Dec  9 11:05:02 2015",10,"[203.24712491035461, 203.39742994308472, 203.54812788963318, 203.69864583015442, 203.84841895103455, 204.0020408630371, 204.16581296920776, 204.31600093841553, 204.47641801834106, 204.6169798374176]","right",1,"PROA001",59.87056106,"PSAP_PRO_A","2015_Dec_09_1102","A",202.1355789,203.2471249,203.3974299,203.5481279,203.6986458,203.848419,204.0020409,204.165813,204.3160009,204.476418,204.6169798,NA,NA,NA,NA,NA,NA,1.111546039,0.150305033,0.150697947,0.150517941,0.149773121,0.153621912,0.163772106,0.150187969,0.16041708,0.140561819,NA,NA,NA,NA,NA,0.248140097
"22",10.16,5.08,0,18,18,69,"",NA,"",NA,"",NA,205.626559973,"Wed Dec  9 11:05:02 2015",1,0.402281045914,"bank",209.099603891,"Wed Dec  9 11:05:06 2015",10,"[206.67106699943542, 206.8277039527893, 207.0115098953247, 207.15568685531616, 207.32289385795593, 207.45649886131287, 207.61274886131287, 207.76241302490234, 207.91705179214478, 208.09118795394897]","right",1,"PROA001",59.8705610638,"PSAP_PRO_A","2015_Dec_09_1102","A",NA,10.16,5.08,0,18,18,69,NA,NA,NA,NA,NA,NA,205.62656,"Wed Dec  9 11:05:02 2015",1,0.402281046,"bank",209.0996039,"Wed Dec  9 11:05:06 2015",10,"[206.67106699943542, 206.8277039527893, 207.0115098953247, 207.15568685531616, 207.32289385795593, 207.45649886131287, 207.61274886131287, 207.76241302490234, 207.91705179214478, 208.09118795394897]","right",1,"PROA001",59.87056106,"PSAP_PRO_A","2015_Dec_09_1102","A",205.62656,206.671067,206.827704,207.0115099,207.1556869,207.3228939,207.4564989,207.6127489,207.762413,207.9170518,208.091188,NA,NA,NA,NA,NA,NA,1.044507026,0.156636953,0.183805943,0.14417696,0.167207003,0.133605003,0.15625,0.149664164,0.154638767,0.174136162,NA,NA,NA,NA,NA,0.246462798
"23",50.88,25.44,0,19,19,70,"",NA,"",NA,"",NA,209.100489855,"Wed Dec  9 11:05:06 2015",0,0.235226869583,"bank",212.453743935,"Wed Dec  9 11:05:09 2015",10,"[210.06203699111938, 210.20449995994568, 210.37216997146606, 210.53276896476746, 210.70292901992798, 210.84713697433472, 210.98025178909302, 211.1476559638977, 211.3147599697113, 211.43753790855408]","left",1,"PROA001",59.8705610638,"PSAP_PRO_A","2015_Dec_09_1102","A",NA,50.88,25.44,0,19,19,70,NA,NA,NA,NA,NA,NA,209.1004899,"Wed Dec  9 11:05:06 2015",0,0.23522687,"bank",212.4537439,"Wed Dec  9 11:05:09 2015",10,"[210.06203699111938, 210.20449995994568, 210.37216997146606, 210.53276896476746, 210.70292901992798, 210.84713697433472, 210.98025178909302, 211.1476559638977, 211.3147599697113, 211.43753790855408]","left",1,"PROA001",59.87056106,"PSAP_PRO_A","2015_Dec_09_1102","A",209.1004899,210.062037,210.2045,210.37217,210.532769,210.702929,210.847137,210.9802518,211.147656,211.31476,211.4375379,NA,NA,NA,NA,NA,NA,0.961547136,0.142462969,0.167670012,0.160598993,0.170160055,0.144207954,0.133114815,0.167404175,0.167104006,0.122777939,NA,NA,NA,NA,NA,0.233704805
"24",42.95,23.86,0,20,20,50,"",NA,"",NA,"",NA,212.454384804,"Wed Dec  9 11:05:09 2015",1,0.268456935883,"bank",215.72734499,"Wed Dec  9 11:05:12 2015",10,"[213.39203190803528, 213.48558688163757, 213.63579392433167, 213.7860448360443, 213.94308590888977, 214.08687782287598, 214.24352288246155, 214.39741396903992, 214.55498600006104, 214.71480083465576]","right",1,"PROA001",59.8705610638,"PSAP_PRO_A","2015_Dec_09_1102","A",NA,42.95,23.86,0,20,20,50,NA,NA,NA,NA,NA,NA,212.4543848,"Wed Dec  9 11:05:09 2015",1,0.268456936,"bank",215.727345,"Wed Dec  9 11:05:12 2015",10,"[213.39203190803528, 213.48558688163757, 213.63579392433167, 213.7860448360443, 213.94308590888977, 214.08687782287598, 214.24352288246155, 214.39741396903992, 214.55498600006104, 214.71480083465576]","right",1,"PROA001",59.87056106,"PSAP_PRO_A","2015_Dec_09_1102","A",212.4543848,213.3920319,213.4855869,213.6357939,213.7860448,213.9430859,214.0868778,214.2435229,214.397414,214.554986,214.7148008,NA,NA,NA,NA,NA,NA,0.937647104,0.093554974,0.150207043,0.150250912,0.157041073,0.143791914,0.15664506,0.153891087,0.157572031,0.159814835,NA,NA,NA,NA,NA,0.226041603
"25",24.16,17.9,0,21,21,25,"",NA,"",NA,"",NA,215.72803688,"Wed Dec  9 11:05:12 2015",0,0.334711074829,"bank",219.418439865,"Wed Dec  9 11:05:16 2015",10,"[216.77627301216125, 216.9262340068817, 217.0828719139099, 217.24385690689087, 217.41099786758423, 217.56707096099854, 217.7112159729004, 217.8782398700714, 218.028550863266, 218.4126558303833]","left",1,"PROA001",59.8705610638,"PSAP_PRO_A","2015_Dec_09_1102","A",NA,24.16,17.9,0,21,21,25,NA,NA,NA,NA,NA,NA,215.7280369,"Wed Dec  9 11:05:12 2015",0,0.334711075,"bank",219.4184399,"Wed Dec  9 11:05:16 2015",10,"[216.77627301216125, 216.9262340068817, 217.0828719139099, 217.24385690689087, 217.41099786758423, 217.56707096099854, 217.7112159729004, 217.8782398700714, 218.028550863266, 218.4126558303833]","left",1,"PROA001",59.87056106,"PSAP_PRO_A","2015_Dec_09_1102","A",215.7280369,216.776273,216.926234,217.0828719,217.2438569,217.4109979,217.567071,217.711216,217.8782399,218.0285509,218.4126558,NA,NA,NA,NA,NA,NA,1.048236132,0.149960995,0.156637907,0.160984993,0.167140961,0.156073093,0.144145012,0.167023897,0.150310993,0.384104967,NA,NA,NA,NA,NA,0.268461895
"26",52.07,38.57,0,22,22,32,"",NA,"",NA,"",NA,219.419042826,"Wed Dec  9 11:05:16 2015",1,0.35201883316,"bank",222.795494795,"Wed Dec  9 11:05:19 2015",10,"[220.37049198150635, 220.53391289710999, 220.68470096588135, 220.85161900520325, 221.00217199325562, 221.15570282936096, 221.3189458847046, 221.45895290374756, 221.61998796463013, 221.78654599189758]","right",1,"PROA001",59.8705610638,"PSAP_PRO_A","2015_Dec_09_1102","A",NA,52.07,38.57,0,22,22,32,NA,NA,NA,NA,NA,NA,219.4190428,"Wed Dec  9 11:05:16 2015",1,0.352018833,"bank",222.7954948,"Wed Dec  9 11:05:19 2015",10,"[220.37049198150635, 220.53391289710999, 220.68470096588135, 220.85161900520325, 221.00217199325562, 221.15570282936096, 221.3189458847046, 221.45895290374756, 221.61998796463013, 221.78654599189758]","right",1,"PROA001",59.87056106,"PSAP_PRO_A","2015_Dec_09_1102","A",219.4190428,220.370492,220.5339129,220.684701,220.851619,221.002172,221.1557028,221.3189459,221.4589529,221.619988,221.786546,NA,NA,NA,NA,NA,NA,0.951449156,0.163420916,0.150788069,0.166918039,0.150552988,0.153530836,0.163243055,0.140007019,0.161035061,0.166558027,NA,NA,NA,NA,NA,0.236750317
"27",35.32,17.66,0,23,23,66,"",NA,"",NA,"",NA,222.796377897,"Wed Dec  9 11:05:19 2015",0,0.467896223068,"bank",226.349798918,"Wed Dec  9 11:05:23 2015",10,"[223.9643359184265, 224.10857892036438, 224.27559280395508, 224.42597484588623, 224.57893300056458, 224.74288487434387, 224.893620967865, 225.06026196479797, 225.21041202545166, 225.3441948890686]","left",1,"PROA001",59.8705610638,"PSAP_PRO_A","2015_Dec_09_1102","A",NA,35.32,17.66,0,23,23,66,NA,NA,NA,NA,NA,NA,222.7963779,"Wed Dec  9 11:05:19 2015",0,0.467896223,"bank",226.3497989,"Wed Dec  9 11:05:23 2015",10,"[223.9643359184265, 224.10857892036438, 224.27559280395508, 224.42597484588623, 224.57893300056458, 224.74288487434387, 224.893620967865, 225.06026196479797, 225.21041202545166, 225.3441948890686]","left",1,"PROA001",59.87056106,"PSAP_PRO_A","2015_Dec_09_1102","A",222.7963779,223.9643359,224.1085789,224.2755928,224.4259748,224.578933,224.7428849,224.893621,225.060262,225.210412,225.3441949,NA,NA,NA,NA,NA,NA,1.167958021,0.144243002,0.167013884,0.150382042,0.152958155,0.163951874,0.150736094,0.166640997,0.150150061,0.133782864,NA,NA,NA,NA,NA,0.254781699
"28",76.57,42.54,0,24,24,53,"",NA,"",NA,"",NA,226.350400925,"Wed Dec  9 11:05:23 2015",1,0.452537059784,"bank",229.944001913,"Wed Dec  9 11:05:26 2015",10,"[227.55498385429382, 227.69945883750916, 227.8655698299408, 228.02658486366272, 228.170236825943, 228.33388900756836, 228.48462986946106, 228.63435792922974, 228.78813099861145, 228.93554091453552]","right",1,"PROA001",59.8705610638,"PSAP_PRO_A","2015_Dec_09_1102","A",NA,76.57,42.54,0,24,24,53,NA,NA,NA,NA,NA,NA,226.3504009,"Wed Dec  9 11:05:23 2015",1,0.45253706,"bank",229.9440019,"Wed Dec  9 11:05:26 2015",10,"[227.55498385429382, 227.69945883750916, 227.8655698299408, 228.02658486366272, 228.170236825943, 228.33388900756836, 228.48462986946106, 228.63435792922974, 228.78813099861145, 228.93554091453552]","right",1,"PROA001",59.87056106,"PSAP_PRO_A","2015_Dec_09_1102","A",226.3504009,227.5549839,227.6994588,227.8655698,228.0265849,228.1702368,228.333889,228.4846299,228.6343579,228.788131,228.9355409,NA,NA,NA,NA,NA,NA,1.204582929,0.144474983,0.166110992,0.161015034,0.143651962,0.163652182,0.150740862,0.14972806,0.153773069,0.147409916,NA,NA,NA,NA,NA,0.258513999
"29",86.6,38.49,0,25,25,81,"",NA,"",NA,"",NA,229.94488883,"Wed Dec  9 11:05:26 2015",1,0.284820079803,"bank",233.211133957,"Wed Dec  9 11:05:30 2015",11,"[230.81185102462769, 230.95644783973694, 231.12348794937134, 231.2735948562622, 231.4303958415985, 231.56166696548462, 231.73199582099915, 231.8852458000183, 232.0422079563141, 232.19942378997803, 232.34620594978333]","right",1,"PROA001",59.8705610638,"PSAP_PRO_A","2015_Dec_09_1102","A",NA,86.6,38.49,0,25,25,81,NA,NA,NA,NA,NA,NA,229.9448888,"Wed Dec  9 11:05:26 2015",1,0.28482008,"bank",233.211134,"Wed Dec  9 11:05:30 2015",11,"[230.81185102462769, 230.95644783973694, 231.12348794937134, 231.2735948562622, 231.4303958415985, 231.56166696548462, 231.73199582099915, 231.8852458000183, 232.0422079563141, 232.19942378997803, 232.34620594978333]","right",1,"PROA001",59.87056106,"PSAP_PRO_A","2015_Dec_09_1102","A",229.9448888,230.811851,230.9564478,231.1234879,231.2735949,231.4303958,231.561667,231.7319958,231.8852458,232.042208,232.1994238,232.346206,NA,NA,NA,NA,NA,0.866962195,0.144596815,0.16704011,0.150106907,0.156800985,0.131271124,0.170328856,0.153249979,0.156962156,0.157215834,0.14678216,NA,NA,NA,NA,0.218301556
"30",8.42,8.34,0,26,26,9,"",NA,"",NA,"",NA,233.212174892,"Wed Dec  9 11:05:30 2015",0,0.803560972214,"bank",237.326339006,"Wed Dec  9 11:05:34 2015",10,"[234.73064398765564, 234.8748369216919, 235.04813289642334, 235.2047369480133, 235.3716278076172, 235.53249382972717, 235.66611981391907, 235.83370089530945, 235.98760080337524, 236.31790590286255]","left",1,"PROA001",59.8705610638,"PSAP_PRO_A","2015_Dec_09_1102","A",NA,8.42,8.34,0,26,26,9,NA,NA,NA,NA,NA,NA,233.2121749,"Wed Dec  9 11:05:30 2015",0,0.803560972,"bank",237.326339,"Wed Dec  9 11:05:34 2015",10,"[234.73064398765564, 234.8748369216919, 235.04813289642334, 235.2047369480133, 235.3716278076172, 235.53249382972717, 235.66611981391907, 235.83370089530945, 235.98760080337524, 236.31790590286255]","left",1,"PROA001",59.87056106,"PSAP_PRO_A","2015_Dec_09_1102","A",233.2121749,234.730644,234.8748369,235.0481329,235.2047369,235.3716278,235.5324938,235.6661198,235.8337009,235.9876008,236.3179059,NA,NA,NA,NA,NA,NA,1.518469096,0.144192934,0.173295975,0.156604052,0.16689086,0.160866022,0.133625984,0.167581081,0.153899908,0.330305099,NA,NA,NA,NA,NA,0.310573101
"31",36.91,27.34,0,27,27,31,"",NA,"",NA,"",NA,237.327232838,"Wed Dec  9 11:05:34 2015",1,0.502654075623,"bank",240.797351837,"Wed Dec  9 11:05:37 2015",10,"[238.4252908229828, 238.57233786582947, 238.72304487228394, 238.87651085853577, 239.0128879547119, 239.19371485710144, 239.33142495155334, 239.49069595336914, 239.64202189445496, 239.7808678150177]","right",1,"PROA001",59.8705610638,"PSAP_PRO_A","2015_Dec_09_1102","A",NA,36.91,27.34,0,27,27,31,NA,NA,NA,NA,NA,NA,237.3272328,"Wed Dec  9 11:05:34 2015",1,0.502654076,"bank",240.7973518,"Wed Dec  9 11:05:37 2015",10,"[238.4252908229828, 238.57233786582947, 238.72304487228394, 238.87651085853577, 239.0128879547119, 239.19371485710144, 239.33142495155334, 239.49069595336914, 239.64202189445496, 239.7808678150177]","right",1,"PROA001",59.87056106,"PSAP_PRO_A","2015_Dec_09_1102","A",237.3272328,238.4252908,238.5723379,238.7230449,238.8765109,239.012888,239.1937149,239.331425,239.490696,239.6420219,239.7808678,NA,NA,NA,NA,NA,NA,1.098057985,0.147047043,0.150707006,0.153465986,0.136377096,0.180826902,0.137710094,0.159271002,0.151325941,0.138845921,NA,NA,NA,NA,NA,0.245363498
"32",46.82,42.56,0,28,28,20,"",NA,"",NA,"",NA,240.797957897,"Wed Dec  9 11:05:37 2015",0,0.485607147217,"bank",244.438090801,"Wed Dec  9 11:05:41 2015",10,"[242.04636597633362, 242.18602800369263, 242.35768389701843, 242.4975028038025, 242.64765691757202, 242.78750896453857, 242.94828081130981, 243.10879683494568, 243.25899600982666, 243.419921875]","left",1,"PROA001",59.8705610638,"PSAP_PRO_A","2015_Dec_09_1102","A",NA,46.82,42.56,0,28,28,20,NA,NA,NA,NA,NA,NA,240.7979579,"Wed Dec  9 11:05:37 2015",0,0.485607147,"bank",244.4380908,"Wed Dec  9 11:05:41 2015",10,"[242.04636597633362, 242.18602800369263, 242.35768389701843, 242.4975028038025, 242.64765691757202, 242.78750896453857, 242.94828081130981, 243.10879683494568, 243.25899600982666, 243.419921875]","left",1,"PROA001",59.87056106,"PSAP_PRO_A","2015_Dec_09_1102","A",240.7979579,242.046366,242.186028,242.3576839,242.4975028,242.6476569,242.787509,242.9482808,243.1087968,243.258996,243.4199219,NA,NA,NA,NA,NA,NA,1.248408079,0.139662027,0.171655893,0.139818907,0.150154114,0.139852047,0.160771847,0.160516024,0.150199175,0.160925865,NA,NA,NA,NA,NA,0.262196398
"33",55.52,27.76,0,29,29,64,"",NA,"",NA,"",NA,244.438695908,"Wed Dec  9 11:05:41 2015",0,0.703254938126,"bank",248.33007288,"Wed Dec  9 11:05:45 2015",10,"[245.8945689201355, 246.0381588935852, 246.18902397155762, 246.34963083267212, 246.5056848526001, 246.67625379562378, 246.82630586624146, 246.99707078933716, 247.16310286521912, 247.31376385688782]","left",1,"PROA001",59.8705610638,"PSAP_PRO_A","2015_Dec_09_1102","A",NA,55.52,27.76,0,29,29,64,NA,NA,NA,NA,NA,NA,244.4386959,"Wed Dec  9 11:05:41 2015",0,0.703254938,"bank",248.3300729,"Wed Dec  9 11:05:45 2015",10,"[245.8945689201355, 246.0381588935852, 246.18902397155762, 246.34963083267212, 246.5056848526001, 246.67625379562378, 246.82630586624146, 246.99707078933716, 247.16310286521912, 247.31376385688782]","left",1,"PROA001",59.87056106,"PSAP_PRO_A","2015_Dec_09_1102","A",244.4386959,245.8945689,246.0381589,246.189024,246.3496308,246.5056849,246.6762538,246.8263059,246.9970708,247.1631029,247.3137639,NA,NA,NA,NA,NA,NA,1.455873012,0.143589973,0.150865078,0.160606861,0.15605402,0.170568943,0.150052071,0.170764923,0.166032076,0.150660992,NA,NA,NA,NA,NA,0.287506795
"34",34.49,19.16,0,30,30,49,"",NA,"",NA,"",NA,248.330673933,"Wed Dec  9 11:05:45 2015",1,0.569308996201,"bank",251.937577009,"Wed Dec  9 11:05:48 2015",10,"[249.51594591140747, 249.67929601669312, 249.85264492034912, 249.99660801887512, 250.154639005661, 250.31440782546997, 250.48117184638977, 250.63756489753723, 250.7879729270935, 250.93239378929138]","right",1,"PROA001",59.8705610638,"PSAP_PRO_A","2015_Dec_09_1102","A",NA,34.49,19.16,0,30,30,49,NA,NA,NA,NA,NA,NA,248.3306739,"Wed Dec  9 11:05:45 2015",1,0.569308996,"bank",251.937577,"Wed Dec  9 11:05:48 2015",10,"[249.51594591140747, 249.67929601669312, 249.85264492034912, 249.99660801887512, 250.154639005661, 250.31440782546997, 250.48117184638977, 250.63756489753723, 250.7879729270935, 250.93239378929138]","right",1,"PROA001",59.87056106,"PSAP_PRO_A","2015_Dec_09_1102","A",248.3306739,249.5159459,249.679296,249.8526449,249.996608,250.154639,250.3144078,250.4811718,250.6375649,250.7879729,250.9323938,NA,NA,NA,NA,NA,NA,1.185271978,0.163350105,0.173348904,0.143963099,0.158030987,0.15976882,0.166764021,0.156393051,0.15040803,0.144420862,NA,NA,NA,NA,NA,0.260171986
"35",74.52,33.12,0,31,31,76,"",NA,"",NA,"",NA,251.938188791,"Wed Dec  9 11:05:48 2015",0,0.284247159958,"bank",255.395177841,"Wed Dec  9 11:05:52 2015",10,"[252.94646191596985, 253.0906629562378, 253.24318480491638, 253.4104700088501, 253.5942199230194, 253.75511479377747, 253.92136001586914, 254.08946180343628, 254.23942589759827, 254.38976287841797]","left",1,"PROA001",59.8705610638,"PSAP_PRO_A","2015_Dec_09_1102","A",NA,74.52,33.12,0,31,31,76,NA,NA,NA,NA,NA,NA,251.9381888,"Wed Dec  9 11:05:48 2015",0,0.28424716,"bank",255.3951778,"Wed Dec  9 11:05:52 2015",10,"[252.94646191596985, 253.0906629562378, 253.24318480491638, 253.4104700088501, 253.5942199230194, 253.75511479377747, 253.92136001586914, 254.08946180343628, 254.23942589759827, 254.38976287841797]","left",1,"PROA001",59.87056106,"PSAP_PRO_A","2015_Dec_09_1102","A",251.9381888,252.9464619,253.090663,253.2431848,253.41047,253.5942199,253.7551148,253.92136,254.0894618,254.2394259,254.3897629,NA,NA,NA,NA,NA,NA,1.008273125,0.14420104,0.152521849,0.167285204,0.183749914,0.160894871,0.166245222,0.168101788,0.149964094,0.150336981,NA,NA,NA,NA,NA,0.245157409
"36",31.8,21.2,0,32,32,47,"",NA,"",NA,"",NA,255.395778894,"Wed Dec  9 11:05:52 2015",0,0.267632007599,"bank",258.80240798,"Wed Dec  9 11:05:55 2015",10,"[256.37735390663147, 256.51709485054016, 256.6838548183441, 256.82786202430725, 256.9948139190674, 257.15522289276123, 257.31852889060974, 257.4796028137207, 257.6466248035431, 257.78612899780273]","left",1,"PROA001",59.8705610638,"PSAP_PRO_A","2015_Dec_09_1102","A",NA,31.8,21.2,0,32,32,47,NA,NA,NA,NA,NA,NA,255.3957789,"Wed Dec  9 11:05:52 2015",0,0.267632008,"bank",258.802408,"Wed Dec  9 11:05:55 2015",10,"[256.37735390663147, 256.51709485054016, 256.6838548183441, 256.82786202430725, 256.9948139190674, 257.15522289276123, 257.31852889060974, 257.4796028137207, 257.6466248035431, 257.78612899780273]","left",1,"PROA001",59.87056106,"PSAP_PRO_A","2015_Dec_09_1102","A",255.3957789,256.3773539,256.5170949,256.6838548,256.827862,256.9948139,257.1552229,257.3185289,257.4796028,257.6466248,257.786129,NA,NA,NA,NA,NA,NA,0.981575013,0.139740944,0.166759968,0.144007206,0.166951895,0.160408974,0.163305998,0.161073923,0.16702199,0.139504194,NA,NA,NA,NA,NA,0.23903501
"37",66.3,26.52,0,33,33,87,"",NA,"",NA,"",NA,258.803006887,"Wed Dec  9 11:05:55 2015",1,0.267527103424,"bank",262.095748901,"Wed Dec  9 11:05:59 2015",10,"[259.65090799331665, 259.8179609775543, 259.98448181152344, 260.15197587013245, 260.3253548145294, 260.4751179218292, 260.61955285072327, 260.7700397968292, 260.9098279476166, 261.07373690605164]","right",1,"PROA001",59.8705610638,"PSAP_PRO_A","2015_Dec_09_1102","A",NA,66.3,26.52,0,33,33,87,NA,NA,NA,NA,NA,NA,258.8030069,"Wed Dec  9 11:05:55 2015",1,0.267527103,"bank",262.0957489,"Wed Dec  9 11:05:59 2015",10,"[259.65090799331665, 259.8179609775543, 259.98448181152344, 260.15197587013245, 260.3253548145294, 260.4751179218292, 260.61955285072327, 260.7700397968292, 260.9098279476166, 261.07373690605164]","right",1,"PROA001",59.87056106,"PSAP_PRO_A","2015_Dec_09_1102","A",258.8030069,259.650908,259.817961,259.9844818,260.1519759,260.3253548,260.4751179,260.6195529,260.7700398,260.9098279,261.0737369,NA,NA,NA,NA,NA,NA,0.847901106,0.167052984,0.166520834,0.167494059,0.173378944,0.149763107,0.144434929,0.150486946,0.139788151,0.163908958,NA,NA,NA,NA,NA,0.227073002
"38",20.62,13.75,0,34,34,33,"",NA,"",NA,"",NA,262.096638918,"Wed Dec  9 11:05:59 2015",0,0.719068050385,"bank",266.204661846,"Wed Dec  9 11:06:03 2015",10,"[263.54216599464417, 263.6818687915802, 263.8425660133362, 263.9935247898102, 264.1536087989807, 264.3171708583832, 264.4670259952545, 264.628182888031, 264.7947268486023, 265.19613790512085]","left",1,"PROA001",59.8705610638,"PSAP_PRO_A","2015_Dec_09_1102","A",NA,20.62,13.75,0,34,34,33,NA,NA,NA,NA,NA,NA,262.0966389,"Wed Dec  9 11:05:59 2015",0,0.71906805,"bank",266.2046618,"Wed Dec  9 11:06:03 2015",10,"[263.54216599464417, 263.6818687915802, 263.8425660133362, 263.9935247898102, 264.1536087989807, 264.3171708583832, 264.4670259952545, 264.628182888031, 264.7947268486023, 265.19613790512085]","left",1,"PROA001",59.87056106,"PSAP_PRO_A","2015_Dec_09_1102","A",262.0966389,263.542166,263.6818688,263.842566,263.9935248,264.1536088,264.3171709,264.467026,264.6281829,264.7947268,265.1961379,NA,NA,NA,NA,NA,NA,1.445527077,0.139702797,0.160697222,0.150958776,0.160084009,0.163562059,0.149855137,0.161156893,0.166543961,0.401411057,NA,NA,NA,NA,NA,0.309949899
"39",21.48,19.53,0,35,35,21,"",NA,"",NA,"",NA,266.205549955,"Wed Dec  9 11:06:03 2015",1,0.686491966248,"bank",269.922973871,"Wed Dec  9 11:06:06 2015",11,"[267.52294301986694, 267.6679468154907, 267.8349118232727, 268.0022578239441, 268.1691060066223, 268.30562686920166, 268.4692838191986, 268.61999893188477, 268.7530059814453, 268.9069838523865, 269.04082679748535]","right",1,"PROA001",59.8705610638,"PSAP_PRO_A","2015_Dec_09_1102","A",NA,21.48,19.53,0,35,35,21,NA,NA,NA,NA,NA,NA,266.20555,"Wed Dec  9 11:06:03 2015",1,0.686491966,"bank",269.9229739,"Wed Dec  9 11:06:06 2015",11,"[267.52294301986694, 267.6679468154907, 267.8349118232727, 268.0022578239441, 268.1691060066223, 268.30562686920166, 268.4692838191986, 268.61999893188477, 268.7530059814453, 268.9069838523865, 269.04082679748535]","right",1,"PROA001",59.87056106,"PSAP_PRO_A","2015_Dec_09_1102","A",266.20555,267.522943,267.6679468,267.8349118,268.0022578,268.169106,268.3056269,268.4692838,268.6199989,268.753006,268.9069839,269.0408268,NA,NA,NA,NA,NA,1.317393065,0.145003796,0.166965008,0.167346001,0.166848183,0.136520863,0.16365695,0.150715113,0.13300705,0.153977871,0.133842945,NA,NA,NA,NA,0.25775244
"40",43.65,19.4,0,36,36,80,"",NA,"",NA,"",NA,269.924323797,"Wed Dec  9 11:06:06 2015",0,0.652774095535,"bank",273.720464945,"Wed Dec  9 11:06:10 2015",10,"[271.3283019065857, 271.4756898880005, 271.62587785720825, 271.7701358795166, 271.93349599838257, 272.08323097229004, 272.22729086875916, 272.39477586746216, 272.54458498954773, 272.7016439437866]","left",1,"PROA001",59.8705610638,"PSAP_PRO_A","2015_Dec_09_1102","A",NA,43.65,19.4,0,36,36,80,NA,NA,NA,NA,NA,NA,269.9243238,"Wed Dec  9 11:06:06 2015",0,0.652774096,"bank",273.7204649,"Wed Dec  9 11:06:10 2015",10,"[271.3283019065857, 271.4756898880005, 271.62587785720825, 271.7701358795166, 271.93349599838257, 272.08323097229004, 272.22729086875916, 272.39477586746216, 272.54458498954773, 272.7016439437866]","left",1,"PROA001",59.87056106,"PSAP_PRO_A","2015_Dec_09_1102","A",269.9243238,271.3283019,271.4756899,271.6258779,271.7701359,271.933496,272.083231,272.2272909,272.3947759,272.544585,272.7016439,NA,NA,NA,NA,NA,NA,1.40397811,0.147387981,0.150187969,0.144258022,0.163360119,0.149734974,0.144059896,0.167484999,0.149809122,0.157058954,NA,NA,NA,NA,NA,0.277732015
"41",62.2,41.47,0,37,37,39,"",NA,"",NA,"",NA,273.721354008,"Wed Dec  9 11:06:10 2015",0,0.785495042801,"bank",277.64004302,"Wed Dec  9 11:06:14 2015",11,"[275.23407196998596, 275.3573479652405, 275.5210609436035, 275.6684498786926, 275.8246419429779, 276.0022678375244, 276.16920590400696, 276.31981897354126, 276.47299098968506, 276.637099981308, 276.8370518684387]","left",1,"PROA001",59.8705610638,"PSAP_PRO_A","2015_Dec_09_1102","A",NA,62.2,41.47,0,37,37,39,NA,NA,NA,NA,NA,NA,273.721354,"Wed Dec  9 11:06:10 2015",0,0.785495043,"bank",277.640043,"Wed Dec  9 11:06:14 2015",11,"[275.23407196998596, 275.3573479652405, 275.5210609436035, 275.6684498786926, 275.8246419429779, 276.0022678375244, 276.16920590400696, 276.31981897354126, 276.47299098968506, 276.637099981308, 276.8370518684387]","left",1,"PROA001",59.87056106,"PSAP_PRO_A","2015_Dec_09_1102","A",273.721354,275.234072,275.357348,275.5210609,275.6684499,275.8246419,276.0022678,276.1692059,276.319819,276.472991,276.6371,276.8370519,NA,NA,NA,NA,NA,1.512717962,0.123275995,0.163712978,0.147388935,0.156192064,0.177625895,0.166938066,0.15061307,0.153172016,0.164108992,0.199951887,NA,NA,NA,NA,0.28324526
"42",37.71,27.93,0,38,38,30,"",NA,"",NA,"",NA,277.641342878,"Wed Dec  9 11:06:14 2015",0,0.653167009354,"bank",281.46715498,"Wed Dec  9 11:06:18 2015",10,"[279.01866698265076, 279.1760268211365, 279.3319478034973, 279.4824559688568, 279.66016387939453, 279.81634879112244, 279.987361907959, 280.14471983909607, 280.29485297203064, 280.4510807991028]","left",1,"PROA001",59.8705610638,"PSAP_PRO_A","2015_Dec_09_1102","A",NA,37.71,27.93,0,38,38,30,NA,NA,NA,NA,NA,NA,277.6413429,"Wed Dec  9 11:06:14 2015",0,0.653167009,"bank",281.467155,"Wed Dec  9 11:06:18 2015",10,"[279.01866698265076, 279.1760268211365, 279.3319478034973, 279.4824559688568, 279.66016387939453, 279.81634879112244, 279.987361907959, 280.14471983909607, 280.29485297203064, 280.4510807991028]","left",1,"PROA001",59.87056106,"PSAP_PRO_A","2015_Dec_09_1102","A",277.6413429,279.018667,279.1760268,279.3319478,279.482456,279.6601639,279.8163488,279.9873619,280.1447198,280.294853,280.4510808,NA,NA,NA,NA,NA,NA,1.377324105,0.157359838,0.155920982,0.150508165,0.177707911,0.156184912,0.171013117,0.157357931,0.150133133,0.156227827,NA,NA,NA,NA,NA,0.280973792
"43",86.2,43.1,0,39,39,63,"",NA,"",NA,"",NA,281.467772007,"Wed Dec  9 11:06:18 2015",1,1.8388299942,"bank",286.297376871,"Wed Dec  9 11:06:23 2015",10,"[283.92925691604614, 284.08931493759155, 284.242458820343, 284.3928008079529, 284.56381392478943, 284.69095492362976, 284.84365487098694, 285.00489592552185, 285.1547198295593, 285.2819378376007]","right",1,"PROA001",59.8705610638,"PSAP_PRO_A","2015_Dec_09_1102","A",NA,86.2,43.1,0,39,39,63,NA,NA,NA,NA,NA,NA,281.467772,"Wed Dec  9 11:06:18 2015",1,1.838829994,"bank",286.2973769,"Wed Dec  9 11:06:23 2015",10,"[283.92925691604614, 284.08931493759155, 284.242458820343, 284.3928008079529, 284.56381392478943, 284.69095492362976, 284.84365487098694, 285.00489592552185, 285.1547198295593, 285.2819378376007]","right",1,"PROA001",59.87056106,"PSAP_PRO_A","2015_Dec_09_1102","A",281.467772,283.9292569,284.0893149,284.2424588,284.3928008,284.5638139,284.6909549,284.8436549,285.0048959,285.1547198,285.2819378,NA,NA,NA,NA,NA,NA,2.461484909,0.160058022,0.153143883,0.150341988,0.171013117,0.127140999,0.152699947,0.161241055,0.149823904,0.127218008,NA,NA,NA,NA,NA,0.381416583
"44",41.06,37.33,0,40,40,17,"",NA,"",NA,"",NA,286.298270941,"Wed Dec  9 11:06:23 2015",1,0.369010925293,"bank",289.704746962,"Wed Dec  9 11:06:26 2015",10,"[287.26607489585876, 287.4094648361206, 287.5604968070984, 288.14060282707214, 288.1412568092346, 288.1417889595032, 288.20323491096497, 288.36108779907227, 288.51213693618774, 288.6854338645935]","right",1,"PROA001",59.8705610638,"PSAP_PRO_A","2015_Dec_09_1102","A",NA,41.06,37.33,0,40,40,17,NA,NA,NA,NA,NA,NA,286.2982709,"Wed Dec  9 11:06:23 2015",1,0.369010925,"bank",289.704747,"Wed Dec  9 11:06:26 2015",10,"[287.26607489585876, 287.4094648361206, 287.5604968070984, 288.14060282707214, 288.1412568092346, 288.1417889595032, 288.20323491096497, 288.36108779907227, 288.51213693618774, 288.6854338645935]","right",1,"PROA001",59.87056106,"PSAP_PRO_A","2015_Dec_09_1102","A",286.2982709,287.2660749,287.4094648,287.5604968,288.1406028,288.1412568,288.141789,288.2032349,288.3610878,288.5121369,288.6854339,NA,NA,NA,NA,NA,NA,0.967803955,0.14338994,0.151031971,0.58010602,0.000653982,0.00053215,0.061445951,0.157852888,0.151049137,0.173296928,NA,NA,NA,NA,NA,0.238716292
"45",96.5,42.89,0,41,41,73,"",NA,"",NA,"",NA,289.705677986,"Wed Dec  9 11:06:26 2015",1,1.55472612381,"bank",294.347786903,"Wed Dec  9 11:06:31 2015",10,"[291.91963291168213, 292.0590989589691, 292.22605895996094, 292.3931448459625, 292.55424785614014, 292.69373989105225, 292.86112093925476, 293.0215268135071, 293.1789288520813, 293.32921600341797]","right",1,"PROA001",59.8705610638,"PSAP_PRO_A","2015_Dec_09_1102","A",NA,96.5,42.89,0,41,41,73,NA,NA,NA,NA,NA,NA,289.705678,"Wed Dec  9 11:06:26 2015",1,1.554726124,"bank",294.3477869,"Wed Dec  9 11:06:31 2015",10,"[291.91963291168213, 292.0590989589691, 292.22605895996094, 292.3931448459625, 292.55424785614014, 292.69373989105225, 292.86112093925476, 293.0215268135071, 293.1789288520813, 293.32921600341797]","right",1,"PROA001",59.87056106,"PSAP_PRO_A","2015_Dec_09_1102","A",289.705678,291.9196329,292.059099,292.226059,292.3931448,292.5542479,292.6937399,292.8611209,293.0215268,293.1789289,293.329216,NA,NA,NA,NA,NA,NA,2.213954926,0.139466047,0.166960001,0.167085886,0.16110301,0.139492035,0.167381048,0.160405874,0.157402039,0.150287151,NA,NA,NA,NA,NA,0.362353802
"46",50.39,33.59,0,42,42,45,"",NA,"",NA,"",NA,294.348685026,"Wed Dec  9 11:06:31 2015",0,0.652002096176,"bank",298.122555971,"Wed Dec  9 11:06:35 2015",10,"[295.7012779712677, 295.8506579399109, 296.0182750225067, 296.172415971756, 296.34577798843384, 296.4892067909241, 296.6491479873657, 296.7966949939728, 296.9465730190277, 297.11406779289246]","left",1,"PROA001",59.8705610638,"PSAP_PRO_A","2015_Dec_09_1102","A",NA,50.39,33.59,0,42,42,45,NA,NA,NA,NA,NA,NA,294.348685,"Wed Dec  9 11:06:31 2015",0,0.652002096,"bank",298.122556,"Wed Dec  9 11:06:35 2015",10,"[295.7012779712677, 295.8506579399109, 296.0182750225067, 296.172415971756, 296.34577798843384, 296.4892067909241, 296.6491479873657, 296.7966949939728, 296.9465730190277, 297.11406779289246]","left",1,"PROA001",59.87056106,"PSAP_PRO_A","2015_Dec_09_1102","A",294.348685,295.701278,295.8506579,296.018275,296.172416,296.345778,296.4892068,296.649148,296.796695,296.946573,297.1140678,NA,NA,NA,NA,NA,NA,1.352592945,0.149379969,0.167617083,0.154140949,0.173362017,0.143428802,0.159941196,0.147547007,0.149878025,0.167494774,NA,NA,NA,NA,NA,0.276538277
"47",28.34,25.76,0,43,43,22,"",NA,"",NA,"",NA,298.123461962,"Wed Dec  9 11:06:35 2015",1,0.552561998367,"bank",301.760317802,"Wed Dec  9 11:06:38 2015",10,"[299.2882900238037, 299.45158100128174, 299.6021180152893, 299.7689278125763, 299.93670082092285, 300.07656383514404, 300.22721099853516, 300.37076687812805, 300.52119994163513, 300.7442398071289]","right",1,"PROA001",59.8705610638,"PSAP_PRO_A","2015_Dec_09_1102","A",NA,28.34,25.76,0,43,43,22,NA,NA,NA,NA,NA,NA,298.123462,"Wed Dec  9 11:06:35 2015",1,0.552561998,"bank",301.7603178,"Wed Dec  9 11:06:38 2015",10,"[299.2882900238037, 299.45158100128174, 299.6021180152893, 299.7689278125763, 299.93670082092285, 300.07656383514404, 300.22721099853516, 300.37076687812805, 300.52119994163513, 300.7442398071289]","right",1,"PROA001",59.87056106,"PSAP_PRO_A","2015_Dec_09_1102","A",298.123462,299.28829,299.451581,299.602118,299.7689278,299.9367008,300.0765638,300.227211,300.3707669,300.5211999,300.7442398,NA,NA,NA,NA,NA,NA,1.164828062,0.163290977,0.150537014,0.166809797,0.167773008,0.139863014,0.150647163,0.14355588,0.150433064,0.223039865,NA,NA,NA,NA,NA,0.262077785
"48",34.99,52.48,0,44,44,3,"",NA,"",NA,"",NA,301.76094389,"Wed Dec  9 11:06:38 2015",0,1.00290489197,"bank",305.885564804,"Wed Dec  9 11:06:42 2015",10,"[303.5208230018616, 303.6501269340515, 303.80083298683167, 303.95503091812134, 304.11228585243225, 304.26566195487976, 304.42915391921997, 304.5692558288574, 304.7301390171051, 304.88056683540344]","left",1,"PROA001",59.8705610638,"PSAP_PRO_A","2015_Dec_09_1102","A",NA,34.99,52.48,0,44,44,3,NA,NA,NA,NA,NA,NA,301.7609439,"Wed Dec  9 11:06:38 2015",0,1.002904892,"bank",305.8855648,"Wed Dec  9 11:06:42 2015",10,"[303.5208230018616, 303.6501269340515, 303.80083298683167, 303.95503091812134, 304.11228585243225, 304.26566195487976, 304.42915391921997, 304.5692558288574, 304.7301390171051, 304.88056683540344]","left",1,"PROA001",59.87056106,"PSAP_PRO_A","2015_Dec_09_1102","A",301.7609439,303.520823,303.6501269,303.800833,303.9550309,304.1122859,304.265662,304.4291539,304.5692558,304.730139,304.8805668,NA,NA,NA,NA,NA,NA,1.759879112,0.129303932,0.150706053,0.154197931,0.157254934,0.153376102,0.163491964,0.14010191,0.160883188,0.150427818,NA,NA,NA,NA,NA,0.311962295
"49",20.9,20.69,0,45,45,8,"",NA,"",NA,"",NA,305.886204004,"Wed Dec  9 11:06:42 2015",0,0.385404825211,"bank",309.326887846,"Wed Dec  9 11:06:46 2015",10,"[307.00157284736633, 307.1414020061493, 307.3019049167633, 307.4416539669037, 307.60256791114807, 307.72995591163635, 307.90310287475586, 308.04311084747314, 308.1875989437103, 308.3212230205536]","left",1,"PROA001",59.8705610638,"PSAP_PRO_A","2015_Dec_09_1102","A",NA,20.9,20.69,0,45,45,8,NA,NA,NA,NA,NA,NA,305.886204,"Wed Dec  9 11:06:42 2015",0,0.385404825,"bank",309.3268878,"Wed Dec  9 11:06:46 2015",10,"[307.00157284736633, 307.1414020061493, 307.3019049167633, 307.4416539669037, 307.60256791114807, 307.72995591163635, 307.90310287475586, 308.04311084747314, 308.1875989437103, 308.3212230205536]","left",1,"PROA001",59.87056106,"PSAP_PRO_A","2015_Dec_09_1102","A",305.886204,307.0015728,307.141402,307.3019049,307.441654,307.6025679,307.7299559,307.9031029,308.0431108,308.1875989,308.321223,NA,NA,NA,NA,NA,NA,1.115368843,0.139829159,0.160502911,0.13974905,0.160913944,0.127388,0.173146963,0.140007973,0.144488096,0.133624077,NA,NA,NA,NA,NA,0.243501902
"50",34.99,23.33,0,46,46,38,"",NA,"",NA,"",NA,309.327495813,"Wed Dec  9 11:06:46 2015",1,0.551168203354,"bank",312.814852953,"Wed Dec  9 11:06:49 2015",11,"[310.48221802711487, 310.6324429512024, 310.7698268890381, 310.9163029193878, 311.066339969635, 311.216481924057, 311.37776494026184, 311.50476002693176, 311.66811895370483, 311.81147289276123, 311.96166491508484]","right",1,"PROA001",59.8705610638,"PSAP_PRO_A","2015_Dec_09_1102","A",NA,34.99,23.33,0,46,46,38,NA,NA,NA,NA,NA,NA,309.3274958,"Wed Dec  9 11:06:46 2015",1,0.551168203,"bank",312.814853,"Wed Dec  9 11:06:49 2015",11,"[310.48221802711487, 310.6324429512024, 310.7698268890381, 310.9163029193878, 311.066339969635, 311.216481924057, 311.37776494026184, 311.50476002693176, 311.66811895370483, 311.81147289276123, 311.96166491508484]","right",1,"PROA001",59.87056106,"PSAP_PRO_A","2015_Dec_09_1102","A",309.3274958,310.482218,310.632443,310.7698269,310.9163029,311.06634,311.2164819,311.3777649,311.50476,311.668119,311.8114729,311.9616649,NA,NA,NA,NA,NA,1.154722214,0.150224924,0.137383938,0.14647603,0.15003705,0.150141954,0.161283016,0.126995087,0.163358927,0.143353939,0.150192022,NA,NA,NA,NA,0.239469918
"51",55.8,27.9,0,47,47,71,"",NA,"",NA,"",NA,312.816200972,"Wed Dec  9 11:06:49 2015",0,0.501770019531,"bank",316.675512791,"Wed Dec  9 11:06:53 2015",10,"[314.05004692077637, 314.19439697265625, 314.37074089050293, 314.5244929790497, 314.6913390159607, 314.85135102272034, 315.0183138847351, 315.1857678890228, 315.3362100124359, 315.670126914978]","left",1,"PROA001",59.8705610638,"PSAP_PRO_A","2015_Dec_09_1102","A",NA,55.8,27.9,0,47,47,71,NA,NA,NA,NA,NA,NA,312.816201,"Wed Dec  9 11:06:49 2015",0,0.50177002,"bank",316.6755128,"Wed Dec  9 11:06:53 2015",10,"[314.05004692077637, 314.19439697265625, 314.37074089050293, 314.5244929790497, 314.6913390159607, 314.85135102272034, 315.0183138847351, 315.1857678890228, 315.3362100124359, 315.670126914978]","left",1,"PROA001",59.87056106,"PSAP_PRO_A","2015_Dec_09_1102","A",312.816201,314.0500469,314.194397,314.3707409,314.524493,314.691339,314.851351,315.0183139,315.1857679,315.33621,315.6701269,NA,NA,NA,NA,NA,NA,1.233845949,0.144350052,0.176343918,0.153752089,0.166846037,0.160012007,0.166962862,0.167454004,0.150442123,0.333916903,NA,NA,NA,NA,NA,0.285392594
"52",40.11,80.22,0,48,48,4,"",NA,"",NA,"",NA,316.676119804,"Wed Dec  9 11:06:53 2015",0,1.03708815575,"bank",320.832184792,"Wed Dec  9 11:06:57 2015",11,"[318.40943598747253, 318.55995297431946, 318.7215600013733, 318.8932349681854, 319.04400086402893, 319.2006049156189, 319.3545069694519, 319.50509691238403, 319.672101020813, 319.81813883781433, 320.03282499313354]","left",1,"PROA001",59.8705610638,"PSAP_PRO_A","2015_Dec_09_1102","A",NA,40.11,80.22,0,48,48,4,NA,NA,NA,NA,NA,NA,316.6761198,"Wed Dec  9 11:06:53 2015",0,1.037088156,"bank",320.8321848,"Wed Dec  9 11:06:57 2015",11,"[318.40943598747253, 318.55995297431946, 318.7215600013733, 318.8932349681854, 319.04400086402893, 319.2006049156189, 319.3545069694519, 319.50509691238403, 319.672101020813, 319.81813883781433, 320.03282499313354]","left",1,"PROA001",59.87056106,"PSAP_PRO_A","2015_Dec_09_1102","A",316.6761198,318.409436,318.559953,318.72156,318.893235,319.0440009,319.2006049,319.354507,319.5050969,319.672101,319.8181388,320.032825,NA,NA,NA,NA,NA,1.733316183,0.150516987,0.161607027,0.171674967,0.150765896,0.156604052,0.153902054,0.150589943,0.167004108,0.146037817,0.214686155,NA,NA,NA,NA,0.305155017
"53",39.13,35.57,0,49,49,18,"",NA,"",NA,"",NA,320.8334198,"Wed Dec  9 11:06:57 2015",0,0.551555156708,"bank",324.506716967,"Wed Dec  9 11:07:01 2015",11,"[322.10009384155273, 322.2337028980255, 322.3943259716034, 322.54103779792786, 322.72167801856995, 322.885066986084, 323.0353629589081, 323.18562388420105, 323.3193027973175, 323.48987793922424, 323.6433298587799]","left",1,"PROA001",59.8705610638,"PSAP_PRO_A","2015_Dec_09_1102","A",NA,39.13,35.57,0,49,49,18,NA,NA,NA,NA,NA,NA,320.8334198,"Wed Dec  9 11:06:57 2015",0,0.551555157,"bank",324.506717,"Wed Dec  9 11:07:01 2015",11,"[322.10009384155273, 322.2337028980255, 322.3943259716034, 322.54103779792786, 322.72167801856995, 322.885066986084, 323.0353629589081, 323.18562388420105, 323.3193027973175, 323.48987793922424, 323.6433298587799]","left",1,"PROA001",59.87056106,"PSAP_PRO_A","2015_Dec_09_1102","A",320.8334198,322.1000938,322.2337029,322.394326,322.5410378,322.721678,322.885067,323.035363,323.1856239,323.3193028,323.4898779,323.6433299,NA,NA,NA,NA,NA,1.266674042,0.133609056,0.160623074,0.146711826,0.180640221,0.163388968,0.150295973,0.150260925,0.133678913,0.170575142,0.15345192,NA,NA,NA,NA,0.255446369
"54",43.16,21.58,0,50,50,65,"",NA,"",NA,"",NA,324.507943869,"Wed Dec  9 11:07:01 2015",0,0.469074010849,"bank",328.336818933,"Wed Dec  9 11:07:05 2015",10,"[325.69735980033875, 325.83491802215576, 325.99150586128235, 326.2923288345337, 326.44263195991516, 326.599308013916, 326.74390602111816, 326.91074085235596, 327.06414794921875, 327.327791929245]","left",1,"PROA001",59.8705610638,"PSAP_PRO_A","2015_Dec_09_1102","A",NA,43.16,21.58,0,50,50,65,NA,NA,NA,NA,NA,NA,324.5079439,"Wed Dec  9 11:07:01 2015",0,0.469074011,"bank",328.3368189,"Wed Dec  9 11:07:05 2015",10,"[325.69735980033875, 325.83491802215576, 325.99150586128235, 326.2923288345337, 326.44263195991516, 326.599308013916, 326.74390602111816, 326.91074085235596, 327.06414794921875, 327.327791929245]","left",1,"PROA001",59.87056106,"PSAP_PRO_A","2015_Dec_09_1102","A",324.5079439,325.6973598,325.834918,325.9915059,326.2923288,326.442632,326.599308,326.743906,326.9107409,327.0641479,327.3277919,NA,NA,NA,NA,NA,NA,1.189415931,0.137558222,0.156587839,0.300822973,0.150303125,0.156676054,0.144598007,0.166834831,0.153407097,0.26364398,NA,NA,NA,NA,NA,0.281984806
"55",65.68,36.49,0,51,51,57,"",NA,"",NA,"",NA,328.337714911,"Wed Dec  9 11:07:05 2015",1,1.65403485298,"bank",333.014045,"Wed Dec  9 11:07:10 2015",10,"[330.60793900489807, 330.7690348625183, 330.91943097114563, 331.0924038887024, 331.2395679950714, 331.40959000587463, 331.5766978263855, 331.7307698726654, 331.87159490585327, 331.9910898208618]","right",1,"PROA001",59.8705610638,"PSAP_PRO_A","2015_Dec_09_1102","A",NA,65.68,36.49,0,51,51,57,NA,NA,NA,NA,NA,NA,328.3377149,"Wed Dec  9 11:07:05 2015",1,1.654034853,"bank",333.014045,"Wed Dec  9 11:07:10 2015",10,"[330.60793900489807, 330.7690348625183, 330.91943097114563, 331.0924038887024, 331.2395679950714, 331.40959000587463, 331.5766978263855, 331.7307698726654, 331.87159490585327, 331.9910898208618]","right",1,"PROA001",59.87056106,"PSAP_PRO_A","2015_Dec_09_1102","A",328.3377149,330.607939,330.7690349,330.919431,331.0924039,331.239568,331.40959,331.5766978,331.7307699,331.8715949,331.9910898,NA,NA,NA,NA,NA,NA,2.270224094,0.161095858,0.150396109,0.172972918,0.147164106,0.170022011,0.167107821,0.154072046,0.140825033,0.119494915,NA,NA,NA,NA,NA,0.365337491
"56",57.3,28.65,0,52,52,72,"",NA,"",NA,"",NA,333.014925003,"Wed Dec  9 11:07:10 2015",1,1.20399904251,"bank",337.235931873,"Wed Dec  9 11:07:14 2015",10,"[334.88453793525696, 335.03244400024414, 335.1847229003906, 335.34506702423096, 335.49512791633606, 335.6560459136963, 335.8070878982544, 335.952476978302, 336.10285782814026, 336.2239158153534]","right",1,"PROA001",59.8705610638,"PSAP_PRO_A","2015_Dec_09_1102","A",NA,57.3,28.65,0,52,52,72,NA,NA,NA,NA,NA,NA,333.014925,"Wed Dec  9 11:07:10 2015",1,1.203999043,"bank",337.2359319,"Wed Dec  9 11:07:14 2015",10,"[334.88453793525696, 335.03244400024414, 335.1847229003906, 335.34506702423096, 335.49512791633606, 335.6560459136963, 335.8070878982544, 335.952476978302, 336.10285782814026, 336.2239158153534]","right",1,"PROA001",59.87056106,"PSAP_PRO_A","2015_Dec_09_1102","A",333.014925,334.8845379,335.032444,335.1847229,335.345067,335.4951279,335.6560459,335.8070879,335.952477,336.1028578,336.2239158,NA,NA,NA,NA,NA,NA,1.869612932,0.147906065,0.1522789,0.160344124,0.150060892,0.160917997,0.151041985,0.14538908,0.15038085,0.121057987,NA,NA,NA,NA,NA,0.320899081
"57",19.91,18.1,0,53,53,16,"",NA,"",NA,"",NA,337.236539841,"Wed Dec  9 11:07:14 2015",1,0.751919984818,"bank",341.024951935,"Wed Dec  9 11:07:18 2015",11,"[338.64163398742676, 338.78598499298096, 338.95302295684814, 339.0966899394989, 339.2532298564911, 339.3931849002838, 339.53714990615845, 339.69796895980835, 339.85792779922485, 340.01529002189636, 340.1885919570923]","right",1,"PROA001",59.8705610638,"PSAP_PRO_A","2015_Dec_09_1102","A",NA,19.91,18.1,0,53,53,16,NA,NA,NA,NA,NA,NA,337.2365398,"Wed Dec  9 11:07:14 2015",1,0.751919985,"bank",341.0249519,"Wed Dec  9 11:07:18 2015",11,"[338.64163398742676, 338.78598499298096, 338.95302295684814, 339.0966899394989, 339.2532298564911, 339.3931849002838, 339.53714990615845, 339.69796895980835, 339.85792779922485, 340.01529002189636, 340.1885919570923]","right",1,"PROA001",59.87056106,"PSAP_PRO_A","2015_Dec_09_1102","A",337.2365398,338.641634,338.785985,338.953023,339.0966899,339.2532299,339.3931849,339.5371499,339.697969,339.8579278,340.01529,340.188592,NA,NA,NA,NA,NA,1.405094146,0.144351006,0.167037964,0.143666983,0.156539917,0.139955044,0.143965006,0.160819054,0.159958839,0.157362223,0.173301935,NA,NA,NA,NA,0.268368374
"58",31.56,28.69,0,54,54,15,"",NA,"",NA,"",NA,341.0262568,"Wed Dec  9 11:07:18 2015",1,0.685642004013,"bank",344.768680811,"Wed Dec  9 11:07:21 2015",10,"[342.28249883651733, 342.4599440097809, 342.61089396476746, 342.7444689273834, 342.91094493865967, 343.08438897132874, 343.2450838088989, 343.41213393211365, 343.56242990493774, 343.76330494880676]","right",1,"PROA001",59.8705610638,"PSAP_PRO_A","2015_Dec_09_1102","A",NA,31.56,28.69,0,54,54,15,NA,NA,NA,NA,NA,NA,341.0262568,"Wed Dec  9 11:07:18 2015",1,0.685642004,"bank",344.7686808,"Wed Dec  9 11:07:21 2015",10,"[342.28249883651733, 342.4599440097809, 342.61089396476746, 342.7444689273834, 342.91094493865967, 343.08438897132874, 343.2450838088989, 343.41213393211365, 343.56242990493774, 343.76330494880676]","right",1,"PROA001",59.87056106,"PSAP_PRO_A","2015_Dec_09_1102","A",341.0262568,342.2824988,342.459944,342.610894,342.7444689,342.9109449,343.084389,343.2450838,343.4121339,343.5624299,343.7633049,NA,NA,NA,NA,NA,NA,1.256242037,0.177445173,0.150949955,0.133574963,0.166476011,0.173444033,0.160694838,0.167050123,0.150295973,0.200875044,NA,NA,NA,NA,NA,0.273704815
"59",32.29,17.94,0,55,55,58,"",NA,"",NA,"",NA,344.769279003,"Wed Dec  9 11:07:21 2015",1,0.469244003296,"bank",348.240225792,"Wed Dec  9 11:07:25 2015",11,"[345.84099102020264, 346.0073628425598, 346.18513798713684, 346.33496499061584, 346.49196887016296, 346.6524109840393, 346.7924528121948, 346.952987909317, 347.09711384773254, 347.22645592689514, 347.37728786468506]","right",1,"PROA001",59.8705610638,"PSAP_PRO_A","2015_Dec_09_1102","A",NA,32.29,17.94,0,55,55,58,NA,NA,NA,NA,NA,NA,344.769279,"Wed Dec  9 11:07:21 2015",1,0.469244003,"bank",348.2402258,"Wed Dec  9 11:07:25 2015",11,"[345.84099102020264, 346.0073628425598, 346.18513798713684, 346.33496499061584, 346.49196887016296, 346.6524109840393, 346.7924528121948, 346.952987909317, 347.09711384773254, 347.22645592689514, 347.37728786468506]","right",1,"PROA001",59.87056106,"PSAP_PRO_A","2015_Dec_09_1102","A",344.769279,345.840991,346.0073628,346.185138,346.334965,346.4919689,346.652411,346.7924528,346.9529879,347.0971138,347.2264559,347.3772879,NA,NA,NA,NA,NA,1.071712017,0.166371822,0.177775145,0.149827003,0.15700388,0.160442114,0.140041828,0.160535097,0.144125938,0.129342079,0.150831938,NA,NA,NA,NA,0.237091715
"60",36.26,24.17,0,56,56,36,"",NA,"",NA,"",NA,348.241520882,"Wed Dec  9 11:07:25 2015",1,0.602608919144,"bank",351.814580917,"Wed Dec  9 11:07:28 2015",11,"[349.4316728115082, 349.5917458534241, 349.7427079677582, 349.87920594215393, 350.03267002105713, 350.19362902641296, 350.3373429775238, 350.4875168800354, 350.64757680892944, 350.8111848831177, 350.9513030052185]","right",1,"PROA001",59.8705610638,"PSAP_PRO_A","2015_Dec_09_1102","A",NA,36.26,24.17,0,56,56,36,NA,NA,NA,NA,NA,NA,348.2415209,"Wed Dec  9 11:07:25 2015",1,0.602608919,"bank",351.8145809,"Wed Dec  9 11:07:28 2015",11,"[349.4316728115082, 349.5917458534241, 349.7427079677582, 349.87920594215393, 350.03267002105713, 350.19362902641296, 350.3373429775238, 350.4875168800354, 350.64757680892944, 350.8111848831177, 350.9513030052185]","right",1,"PROA001",59.87056106,"PSAP_PRO_A","2015_Dec_09_1102","A",348.2415209,349.4316728,349.5917459,349.742708,349.8792059,350.03267,350.193629,350.337343,350.4875169,350.6475768,350.8111849,350.951303,NA,NA,NA,NA,NA,1.19015193,0.160073042,0.150962114,0.136497974,0.153464079,0.160959005,0.143713951,0.150173903,0.160059929,0.163608074,0.140118122,NA,NA,NA,NA,0.246343829
"61",30.2,16.78,0,57,57,55,"",NA,"",NA,"",NA,351.815890789,"Wed Dec  9 11:07:28 2015",1,0.735081911087,"bank",355.625142813,"Wed Dec  9 11:07:32 2015",10,"[353.1998248100281, 353.3538739681244, 353.50651001930237, 353.66726088523865, 353.8238899707794, 353.9677939414978, 354.1352880001068, 354.3019208908081, 354.45269894599915, 354.619343996048]","right",1,"PROA001",59.8705610638,"PSAP_PRO_A","2015_Dec_09_1102","A",NA,30.2,16.78,0,57,57,55,NA,NA,NA,NA,NA,NA,351.8158908,"Wed Dec  9 11:07:28 2015",1,0.735081911,"bank",355.6251428,"Wed Dec  9 11:07:32 2015",10,"[353.1998248100281, 353.3538739681244, 353.50651001930237, 353.66726088523865, 353.8238899707794, 353.9677939414978, 354.1352880001068, 354.3019208908081, 354.45269894599915, 354.619343996048]","right",1,"PROA001",59.87056106,"PSAP_PRO_A","2015_Dec_09_1102","A",351.8158908,353.1998248,353.353874,353.50651,353.6672609,353.82389,353.9677939,354.135288,354.3019209,354.4526989,354.619344,NA,NA,NA,NA,NA,NA,1.383934021,0.154049158,0.152636051,0.160750866,0.156629086,0.143903971,0.167494059,0.166632891,0.150778055,0.16664505,NA,NA,NA,NA,NA,0.280345321
"62",57.91,25.74,0,58,58,79,"",NA,"",NA,"",NA,355.625742912,"Wed Dec  9 11:07:32 2015",0,1.21974492073,"bank",359.981966019,"Wed Dec  9 11:07:36 2015",11,"[357.5295159816742, 357.6929409503937, 357.8462598323822, 358.02699995040894, 358.1844139099121, 358.34430980682373, 358.494824886322, 358.6482198238373, 358.8115408420563, 358.9684808254242, 359.11883187294006]","left",1,"PROA001",59.8705610638,"PSAP_PRO_A","2015_Dec_09_1102","A",NA,57.91,25.74,0,58,58,79,NA,NA,NA,NA,NA,NA,355.6257429,"Wed Dec  9 11:07:32 2015",0,1.219744921,"bank",359.981966,"Wed Dec  9 11:07:36 2015",11,"[357.5295159816742, 357.6929409503937, 357.8462598323822, 358.02699995040894, 358.1844139099121, 358.34430980682373, 358.494824886322, 358.6482198238373, 358.8115408420563, 358.9684808254242, 359.11883187294006]","left",1,"PROA001",59.87056106,"PSAP_PRO_A","2015_Dec_09_1102","A",355.6257429,357.529516,357.692941,357.8462598,358.027,358.1844139,358.3443098,358.4948249,358.6482198,358.8115408,358.9684808,359.1188319,NA,NA,NA,NA,NA,1.90377307,0.163424969,0.153318882,0.180740118,0.15741396,0.159895897,0.150515079,0.153394938,0.163321018,0.156939983,0.150351048,NA,NA,NA,NA,0.317553542
"63",45.97,25.54,0,59,59,52,"",NA,"",NA,"",NA,359.983259916,"Wed Dec  9 11:07:36 2015",0,1.20395803452,"bank",364.358021021,"Wed Dec  9 11:07:41 2015",11,"[361.9019629955292, 362.03508496284485, 362.19175481796265, 362.3588728904724, 362.51970982551575, 362.7036898136139, 362.8624470233917, 363.0271728038788, 363.1938519477844, 363.34446597099304, 363.45452785491943]","left",1,"PROA001",59.8705610638,"PSAP_PRO_A","2015_Dec_09_1102","A",NA,45.97,25.54,0,59,59,52,NA,NA,NA,NA,NA,NA,359.9832599,"Wed Dec  9 11:07:36 2015",0,1.203958035,"bank",364.358021,"Wed Dec  9 11:07:41 2015",11,"[361.9019629955292, 362.03508496284485, 362.19175481796265, 362.3588728904724, 362.51970982551575, 362.7036898136139, 362.8624470233917, 363.0271728038788, 363.1938519477844, 363.34446597099304, 363.45452785491943]","left",1,"PROA001",59.87056106,"PSAP_PRO_A","2015_Dec_09_1102","A",359.9832599,361.901963,362.035085,362.1917548,362.3588729,362.5197098,362.7036898,362.862447,363.0271728,363.1938519,363.344466,363.4545279,NA,NA,NA,NA,NA,1.91870308,0.133121967,0.156669855,0.167118073,0.160836935,0.183979988,0.15875721,0.16472578,0.166679144,0.150614023,0.110061884,NA,NA,NA,NA,0.315569813
"64",8.98,4.49,0,60,60,67,"",NA,"",NA,"",NA,364.359265804,"Wed Dec  9 11:07:41 2015",0,2.17187404633,"bank",369.602707863,"Wed Dec  9 11:07:46 2015",11,"[367.19658493995667, 367.3301959037781, 367.4870479106903, 367.6469099521637, 367.8080458641052, 367.96816897392273, 368.1378138065338, 368.28169298171997, 368.45496797561646, 368.5994758605957, 368.75309586524963]","left",1,"PROA001",59.8705610638,"PSAP_PRO_A","2015_Dec_09_1102","A",NA,8.98,4.49,0,60,60,67,NA,NA,NA,NA,NA,NA,364.3592658,"Wed Dec  9 11:07:41 2015",0,2.171874046,"bank",369.6027079,"Wed Dec  9 11:07:46 2015",11,"[367.19658493995667, 367.3301959037781, 367.4870479106903, 367.6469099521637, 367.8080458641052, 367.96816897392273, 368.1378138065338, 368.28169298171997, 368.45496797561646, 368.5994758605957, 368.75309586524963]","left",1,"PROA001",59.87056106,"PSAP_PRO_A","2015_Dec_09_1102","A",364.3592658,367.1965849,367.3301959,367.4870479,367.64691,367.8080459,367.968169,368.1378138,368.281693,368.454968,368.5994759,368.7530959,NA,NA,NA,NA,NA,2.837319136,0.133610964,0.156852007,0.159862041,0.161135912,0.16012311,0.169644833,0.143879175,0.173274994,0.144507885,0.153620005,NA,NA,NA,NA,0.399439096
"65",31.25,17.36,0,61,61,56,"",NA,"",NA,"",NA,369.603885889,"Wed Dec  9 11:07:46 2015",1,1.05245113373,"bank",373.661417007,"Wed Dec  9 11:07:50 2015",11,"[371.2713499069214, 371.39865589141846, 371.56161284446716, 371.7223308086395, 371.89708280563354, 372.03961992263794, 372.19064688682556, 372.3471119403839, 372.50740694999695, 372.6472408771515, 372.82468485832214]","right",1,"PROA001",59.8705610638,"PSAP_PRO_A","2015_Dec_09_1102","A",NA,31.25,17.36,0,61,61,56,NA,NA,NA,NA,NA,NA,369.6038859,"Wed Dec  9 11:07:46 2015",1,1.052451134,"bank",373.661417,"Wed Dec  9 11:07:50 2015",11,"[371.2713499069214, 371.39865589141846, 371.56161284446716, 371.7223308086395, 371.89708280563354, 372.03961992263794, 372.19064688682556, 372.3471119403839, 372.50740694999695, 372.6472408771515, 372.82468485832214]","right",1,"PROA001",59.87056106,"PSAP_PRO_A","2015_Dec_09_1102","A",369.6038859,371.2713499,371.3986559,371.5616128,371.7223308,371.8970828,372.0396199,372.1906469,372.3471119,372.507407,372.6472409,372.8246849,NA,NA,NA,NA,NA,1.667464018,0.127305984,0.162956953,0.160717964,0.174751997,0.142537117,0.151026964,0.156465054,0.16029501,0.139833927,0.177443981,NA,NA,NA,NA,0.292799906
"66",15.99,10.66,0,62,62,37,"",NA,"",NA,"",NA,373.663038969,"Wed Dec  9 11:07:50 2015",1,0.669329881668,"bank",377.38505888,"Wed Dec  9 11:07:54 2015",11,"[374.95243096351624, 375.1129608154297, 375.26313185691833, 375.4238498210907, 375.58563685417175, 375.7308349609375, 375.8983759880066, 376.0821359157562, 376.2318868637085, 376.3828318119049, 376.53771781921387]","right",1,"PROA001",59.8705610638,"PSAP_PRO_A","2015_Dec_09_1102","A",NA,15.99,10.66,0,62,62,37,NA,NA,NA,NA,NA,NA,373.663039,"Wed Dec  9 11:07:50 2015",1,0.669329882,"bank",377.3850589,"Wed Dec  9 11:07:54 2015",11,"[374.95243096351624, 375.1129608154297, 375.26313185691833, 375.4238498210907, 375.58563685417175, 375.7308349609375, 375.8983759880066, 376.0821359157562, 376.2318868637085, 376.3828318119049, 376.53771781921387]","right",1,"PROA001",59.87056106,"PSAP_PRO_A","2015_Dec_09_1102","A",373.663039,374.952431,375.1129608,375.2631319,375.4238498,375.5856369,375.730835,375.898376,376.0821359,376.2318869,376.3828318,376.5377178,NA,NA,NA,NA,NA,1.289391995,0.160529852,0.150171041,0.160717964,0.161787033,0.145198107,0.167541027,0.183759928,0.149750948,0.150944948,0.154886007,NA,NA,NA,NA,0.261334441
"67",40.16,22.31,0,63,63,59,"",NA,"",NA,"",NA,377.385942936,"Wed Dec  9 11:07:54 2015",0,1.38736796379,"bank",381.928318024,"Wed Dec  9 11:07:58 2015",11,"[379.4721269607544, 379.62270283699036, 379.7903199195862, 379.96028780937195, 380.1236548423767, 380.2801740169525, 380.4413409233093, 380.59820890426636, 380.7525517940521, 380.9257278442383, 381.07909202575684]","left",1,"PROA001",59.8705610638,"PSAP_PRO_A","2015_Dec_09_1102","A",NA,40.16,22.31,0,63,63,59,NA,NA,NA,NA,NA,NA,377.3859429,"Wed Dec  9 11:07:54 2015",0,1.387367964,"bank",381.928318,"Wed Dec  9 11:07:58 2015",11,"[379.4721269607544, 379.62270283699036, 379.7903199195862, 379.96028780937195, 380.1236548423767, 380.2801740169525, 380.4413409233093, 380.59820890426636, 380.7525517940521, 380.9257278442383, 381.07909202575684]","left",1,"PROA001",59.87056106,"PSAP_PRO_A","2015_Dec_09_1102","A",377.3859429,379.472127,379.6227028,379.7903199,379.9602878,380.1236548,380.280174,380.4413409,380.5982089,380.7525518,380.9257278,381.079092,NA,NA,NA,NA,NA,2.086184025,0.150575876,0.167617083,0.16996789,0.163367033,0.156519175,0.161166906,0.156867981,0.15434289,0.17317605,0.153364182,NA,NA,NA,NA,0.335740826
"68",38.03,28.17,0,64,64,24,"",NA,"",NA,"",NA,381.929623842,"Wed Dec  9 11:07:58 2015",1,1.92211413383,"bank",386.77251482,"Wed Dec  9 11:08:03 2015",11,"[384.41628193855286, 384.5663228034973, 384.7237617969513, 384.8708689212799, 385.0177638530731, 385.1675729751587, 385.3178548812866, 385.4721329212189, 385.60838079452515, 385.7601079940796, 385.88581585884094]","right",1,"PROA001",59.8705610638,"PSAP_PRO_A","2015_Dec_09_1102","A",NA,38.03,28.17,0,64,64,24,NA,NA,NA,NA,NA,NA,381.9296238,"Wed Dec  9 11:07:58 2015",1,1.922114134,"bank",386.7725148,"Wed Dec  9 11:08:03 2015",11,"[384.41628193855286, 384.5663228034973, 384.7237617969513, 384.8708689212799, 385.0177638530731, 385.1675729751587, 385.3178548812866, 385.4721329212189, 385.60838079452515, 385.7601079940796, 385.88581585884094]","right",1,"PROA001",59.87056106,"PSAP_PRO_A","2015_Dec_09_1102","A",381.9296238,384.4162819,384.5663228,384.7237618,384.8708689,385.0177639,385.167573,385.3178549,385.4721329,385.6083808,385.760108,385.8858159,NA,NA,NA,NA,NA,2.486658097,0.150040865,0.157438993,0.147107124,0.146894932,0.149809122,0.150281906,0.15427804,0.136247873,0.1517272,0.125707865,NA,NA,NA,NA,0.35965382
"69",9.44,6.29,0,65,65,41,"",NA,"",NA,"",NA,386.773767948,"Wed Dec  9 11:08:03 2015",1,0.886850833893,"bank",390.664178848,"Wed Dec  9 11:08:07 2015",11,"[388.2992010116577, 388.4412808418274, 388.599084854126, 388.75214886665344, 388.89900493621826, 389.0669288635254, 389.20956802368164, 389.3664138317108, 389.510568857193, 389.65443897247314, 389.7507870197296]","right",1,"PROA001",59.8705610638,"PSAP_PRO_A","2015_Dec_09_1102","A",NA,9.44,6.29,0,65,65,41,NA,NA,NA,NA,NA,NA,386.7737679,"Wed Dec  9 11:08:03 2015",1,0.886850834,"bank",390.6641788,"Wed Dec  9 11:08:07 2015",11,"[388.2992010116577, 388.4412808418274, 388.599084854126, 388.75214886665344, 388.89900493621826, 389.0669288635254, 389.20956802368164, 389.3664138317108, 389.510568857193, 389.65443897247314, 389.7507870197296]","right",1,"PROA001",59.87056106,"PSAP_PRO_A","2015_Dec_09_1102","A",386.7737679,388.299201,388.4412808,388.5990849,388.7521489,388.8990049,389.0669289,389.209568,389.3664138,389.5105689,389.654439,389.750787,NA,NA,NA,NA,NA,1.525433064,0.14207983,0.157804012,0.153064013,0.14685607,0.167923927,0.14263916,0.156845808,0.144155025,0.143870115,0.096348047,NA,NA,NA,NA,0.270638097
"70",46.8,34.67,0,66,66,27,"",NA,"",NA,"",NA,390.665484905,"Wed Dec  9 11:08:07 2015",1,0.618630170822,"bank",394.260424852,"Wed Dec  9 11:08:11 2015",10,"[391.8885078430176, 392.0323088169098, 392.18288683891296, 392.3360059261322, 392.48376393318176, 392.63363885879517, 392.7737729549408, 392.93410897254944, 393.08850383758545, 393.25146293640137]","right",1,"PROA001",59.8705610638,"PSAP_PRO_A","2015_Dec_09_1102","A",NA,46.8,34.67,0,66,66,27,NA,NA,NA,NA,NA,NA,390.6654849,"Wed Dec  9 11:08:07 2015",1,0.618630171,"bank",394.2604249,"Wed Dec  9 11:08:11 2015",10,"[391.8885078430176, 392.0323088169098, 392.18288683891296, 392.3360059261322, 392.48376393318176, 392.63363885879517, 392.7737729549408, 392.93410897254944, 393.08850383758545, 393.25146293640137]","right",1,"PROA001",59.87056106,"PSAP_PRO_A","2015_Dec_09_1102","A",390.6654849,391.8885078,392.0323088,392.1828868,392.3360059,392.4837639,392.6336389,392.773773,392.934109,393.0885038,393.2514629,NA,NA,NA,NA,NA,NA,1.223022938,0.143800974,0.150578022,0.153119087,0.147758007,0.149874926,0.140134096,0.160336018,0.154394865,0.162959099,NA,NA,NA,NA,NA,0.258597803
"71",40.65,16.26,0,67,67,86,"",NA,"",NA,"",NA,394.261315823,"Wed Dec  9 11:08:11 2015",0,0.868819952011,"steal",398.230027914,"Wed Dec  9 11:08:15 2015",11,"[395.8235719203949, 395.99111700057983, 396.134694814682, 396.30184388160706, 396.46167182922363, 396.62581491470337, 396.7756369113922, 396.90353989601135, 397.0663249492645, 397.2270209789276, 397.36690402030945]","right",1,"PROA001",59.8705610638,"PSAP_PRO_A","2015_Dec_09_1102","A",NA,40.65,16.26,0,67,67,86,NA,NA,NA,NA,NA,NA,394.2613158,"Wed Dec  9 11:08:11 2015",0,0.868819952,"steal",398.2300279,"Wed Dec  9 11:08:15 2015",11,"[395.8235719203949, 395.99111700057983, 396.134694814682, 396.30184388160706, 396.46167182922363, 396.62581491470337, 396.7756369113922, 396.90353989601135, 397.0663249492645, 397.2270209789276, 397.36690402030945]","right",1,"PROA001",59.87056106,"PSAP_PRO_A","2015_Dec_09_1102","A",394.2613158,395.8235719,395.991117,396.1346948,396.3018439,396.4616718,396.6258149,396.7756369,396.9035399,397.0663249,397.227021,397.366904,NA,NA,NA,NA,NA,1.562256097,0.16754508,0.143577814,0.167149067,0.159827948,0.164143085,0.149821997,0.127902985,0.162785053,0.16069603,0.139883041,NA,NA,NA,NA,0.2823262
"72",30.19,16.77,0,68,68,54,"",NA,"",NA,"",NA,398.231304884,"Wed Dec  9 11:08:15 2015",1,1.11954021454,"bank",402.360929966,"Wed Dec  9 11:08:19 2015",10,"[399.9496819972992, 400.08265686035156, 400.23940682411194, 400.3899118900299, 400.52733397483826, 400.69061183929443, 400.8543198108673, 401.01807498931885, 401.2018539905548, 401.3416039943695]","right",1,"PROA001",59.8705610638,"PSAP_PRO_A","2015_Dec_09_1102","A",NA,30.19,16.77,0,68,68,54,NA,NA,NA,NA,NA,NA,398.2313049,"Wed Dec  9 11:08:15 2015",1,1.119540215,"bank",402.36093,"Wed Dec  9 11:08:19 2015",10,"[399.9496819972992, 400.08265686035156, 400.23940682411194, 400.3899118900299, 400.52733397483826, 400.69061183929443, 400.8543198108673, 401.01807498931885, 401.2018539905548, 401.3416039943695]","right",1,"PROA001",59.87056106,"PSAP_PRO_A","2015_Dec_09_1102","A",398.2313049,399.949682,400.0826569,400.2394068,400.3899119,400.527334,400.6906118,400.8543198,401.018075,401.201854,401.341604,NA,NA,NA,NA,NA,NA,1.718377113,0.132974863,0.156749964,0.150505066,0.137422085,0.163277864,0.163707972,0.163755178,0.183779001,0.139750004,NA,NA,NA,NA,NA,0.311029911
"73",53.05,21.22,0,69,69,84,"",NA,"",NA,"",NA,402.361820936,"Wed Dec  9 11:08:19 2015",0,0.786505222321,"steal",406.280494928,"Wed Dec  9 11:08:23 2015",11,"[403.8774688243866, 404.01459288597107, 404.17519879341125, 404.34223890304565, 404.5029788017273, 404.6622829437256, 404.79951095581055, 404.959755897522, 405.12077498435974, 405.27752590179443, 405.4279499053955]","right",1,"PROA001",59.8705610638,"PSAP_PRO_A","2015_Dec_09_1102","A",NA,53.05,21.22,0,69,69,84,NA,NA,NA,NA,NA,NA,402.3618209,"Wed Dec  9 11:08:19 2015",0,0.786505222,"steal",406.2804949,"Wed Dec  9 11:08:23 2015",11,"[403.8774688243866, 404.01459288597107, 404.17519879341125, 404.34223890304565, 404.5029788017273, 404.6622829437256, 404.79951095581055, 404.959755897522, 405.12077498435974, 405.27752590179443, 405.4279499053955]","right",1,"PROA001",59.87056106,"PSAP_PRO_A","2015_Dec_09_1102","A",402.3618209,403.8774688,404.0145929,404.1751988,404.3422389,404.5029788,404.6622829,404.799511,404.9597559,405.120775,405.2775259,405.4279499,NA,NA,NA,NA,NA,1.515647888,0.137124062,0.160605907,0.16704011,0.160739899,0.159304142,0.137228012,0.160244942,0.161019087,0.156750917,0.150424004,NA,NA,NA,NA,0.278738997
"74",29.81,22.08,0,70,70,29,"",NA,"",NA,"",NA,406.281736851,"Wed Dec  9 11:08:23 2015",1,0.769174098969,"bank",410.227813005,"Wed Dec  9 11:08:27 2015",10,"[407.6860568523407, 407.8384909629822, 407.98277401924133, 408.13373494148254, 408.2868299484253, 408.43708896636963, 408.5908269882202, 408.74515986442566, 408.9017949104309, 409.21932792663574]","right",1,"PROA001",59.8705610638,"PSAP_PRO_A","2015_Dec_09_1102","A",NA,29.81,22.08,0,70,70,29,NA,NA,NA,NA,NA,NA,406.2817369,"Wed Dec  9 11:08:23 2015",1,0.769174099,"bank",410.227813,"Wed Dec  9 11:08:27 2015",10,"[407.6860568523407, 407.8384909629822, 407.98277401924133, 408.13373494148254, 408.2868299484253, 408.43708896636963, 408.5908269882202, 408.74515986442566, 408.9017949104309, 409.21932792663574]","right",1,"PROA001",59.87056106,"PSAP_PRO_A","2015_Dec_09_1102","A",406.2817369,407.6860569,407.838491,407.982774,408.1337349,408.2868299,408.437089,408.590827,408.7451599,408.9017949,409.2193279,NA,NA,NA,NA,NA,NA,1.404320001,0.152434111,0.144283056,0.150960922,0.153095007,0.150259018,0.153738022,0.154332876,0.156635046,0.317533016,NA,NA,NA,NA,NA,0.293759108
"75",15.05,13.68,0,71,71,19,"",NA,"",NA,"",NA,410.22871089,"Wed Dec  9 11:08:27 2015",0,0.769725084305,"bank",414.118261814,"Wed Dec  9 11:08:31 2015",10,"[411.7118079662323, 411.85775995254517, 412.0080728530884, 412.1651599407196, 412.3259069919586, 412.47896695137024, 412.64284896850586, 412.79308891296387, 412.95223093032837, 413.1047430038452]","left",1,"PROA001",59.8705610638,"PSAP_PRO_A","2015_Dec_09_1102","A",NA,15.05,13.68,0,71,71,19,NA,NA,NA,NA,NA,NA,410.2287109,"Wed Dec  9 11:08:27 2015",0,0.769725084,"bank",414.1182618,"Wed Dec  9 11:08:31 2015",10,"[411.7118079662323, 411.85775995254517, 412.0080728530884, 412.1651599407196, 412.3259069919586, 412.47896695137024, 412.64284896850586, 412.79308891296387, 412.95223093032837, 413.1047430038452]","left",1,"PROA001",59.87056106,"PSAP_PRO_A","2015_Dec_09_1102","A",410.2287109,411.711808,411.85776,412.0080729,412.1651599,412.325907,412.478967,412.642849,412.7930889,412.9522309,413.104743,NA,NA,NA,NA,NA,NA,1.483097076,0.145951986,0.150312901,0.157087088,0.160747051,0.153059959,0.163882017,0.150239944,0.159142017,0.152512074,NA,NA,NA,NA,NA,0.287603211
"76",10.74,9.76,0,72,72,14,"",NA,"",NA,"",NA,414.119153023,"Wed Dec  9 11:08:31 2015",0,0.702888965607,"bank",417.905217886,"Wed Dec  9 11:08:34 2015",11,"[415.5387668609619, 415.6894898414612, 415.8393988609314, 415.9771988391876, 416.1332919597626, 416.30103492736816, 416.45133090019226, 416.6012330055237, 416.75154280662537, 416.895929813385, 417.00210881233215]","left",1,"PROA001",59.8705610638,"PSAP_PRO_A","2015_Dec_09_1102","A",NA,10.74,9.76,0,72,72,14,NA,NA,NA,NA,NA,NA,414.119153,"Wed Dec  9 11:08:31 2015",0,0.702888966,"bank",417.9052179,"Wed Dec  9 11:08:34 2015",11,"[415.5387668609619, 415.6894898414612, 415.8393988609314, 415.9771988391876, 416.1332919597626, 416.30103492736816, 416.45133090019226, 416.6012330055237, 416.75154280662537, 416.895929813385, 417.00210881233215]","left",1,"PROA001",59.87056106,"PSAP_PRO_A","2015_Dec_09_1102","A",414.119153,415.5387669,415.6894898,415.8393989,415.9771988,416.133292,416.3010349,416.4513309,416.601233,416.7515428,416.8959298,417.0021088,NA,NA,NA,NA,NA,1.419613838,0.15072298,0.149909019,0.137799978,0.156093121,0.167742968,0.150295973,0.149902105,0.150309801,0.144387007,0.106178999,NA,NA,NA,NA,0.26208689
"77",53.74,39.81,0,73,73,28,"",NA,"",NA,"",NA,417.906473875,"Wed Dec  9 11:08:34 2015",1,0.836405992508,"bank",421.763651848,"Wed Dec  9 11:08:38 2015",11,"[419.35765290260315, 419.51112389564514, 419.67486000061035, 419.8312659263611, 419.9754250049591, 420.136088848114, 420.2928788661957, 420.4427168369293, 420.59350180625916, 420.749675989151, 420.8941628932953]","right",1,"PROA001",59.8705610638,"PSAP_PRO_A","2015_Dec_09_1102","A",NA,53.74,39.81,0,73,73,28,NA,NA,NA,NA,NA,NA,417.9064739,"Wed Dec  9 11:08:34 2015",1,0.836405993,"bank",421.7636518,"Wed Dec  9 11:08:38 2015",11,"[419.35765290260315, 419.51112389564514, 419.67486000061035, 419.8312659263611, 419.9754250049591, 420.136088848114, 420.2928788661957, 420.4427168369293, 420.59350180625916, 420.749675989151, 420.8941628932953]","right",1,"PROA001",59.87056106,"PSAP_PRO_A","2015_Dec_09_1102","A",417.9064739,419.3576529,419.5111239,419.67486,419.8312659,419.975425,420.1360888,420.2928789,420.4427168,420.5935018,420.749676,420.8941629,NA,NA,NA,NA,NA,1.451179028,0.153470993,0.163736105,0.156405926,0.144159079,0.160663843,0.156790018,0.149837971,0.150784969,0.156174183,0.144486904,NA,NA,NA,NA,0.271608093
"78",58.22,29.11,0,74,74,68,"",NA,"",NA,"",NA,421.764906883,"Wed Dec  9 11:08:38 2015",1,1.37013816833,"bank",426.139622927,"Wed Dec  9 11:08:43 2015",12,"[423.7440769672394, 423.89425587654114, 424.04015493392944, 424.1904969215393, 424.34105587005615, 424.50169587135315, 424.6588499546051, 424.8254089355469, 424.9857258796692, 425.1365749835968, 425.2696659564972, 425.437451839447]","right",1,"PROA001",59.8705610638,"PSAP_PRO_A","2015_Dec_09_1102","A",NA,58.22,29.11,0,74,74,68,NA,NA,NA,NA,NA,NA,421.7649069,"Wed Dec  9 11:08:38 2015",1,1.370138168,"bank",426.1396229,"Wed Dec  9 11:08:43 2015",12,"[423.7440769672394, 423.89425587654114, 424.04015493392944, 424.1904969215393, 424.34105587005615, 424.50169587135315, 424.6588499546051, 424.8254089355469, 424.9857258796692, 425.1365749835968, 425.2696659564972, 425.437451839447]","right",1,"PROA001",59.87056106,"PSAP_PRO_A","2015_Dec_09_1102","A",421.7649069,423.744077,423.8942559,424.0401549,424.1904969,424.3410559,424.5016959,424.65885,424.8254089,424.9857259,425.136575,425.269666,425.4374518,NA,NA,NA,NA,1.979170084,0.150178909,0.145899057,0.150341988,0.150558949,0.160640001,0.157154083,0.166558981,0.160316944,0.150849104,0.133090973,0.167785883,NA,NA,NA,0.306045413
"79",71.33,28.53,0,75,75,85,"",NA,"",NA,"",NA,426.140837908,"Wed Dec  9 11:08:43 2015",0,1.03688383102,"steal",430.248343945,"Wed Dec  9 11:08:47 2015",12,"[427.89837884902954, 428.02900099754333, 428.1930248737335, 428.34283685684204, 428.5103738307953, 428.65417981147766, 428.8001608848572, 428.9504888057709, 429.09498381614685, 429.23163199424744, 429.3856599330902, 429.5124638080597]","right",1,"PROA001",59.8705610638,"PSAP_PRO_A","2015_Dec_09_1102","A",NA,71.33,28.53,0,75,75,85,NA,NA,NA,NA,NA,NA,426.1408379,"Wed Dec  9 11:08:43 2015",0,1.036883831,"steal",430.2483439,"Wed Dec  9 11:08:47 2015",12,"[427.89837884902954, 428.02900099754333, 428.1930248737335, 428.34283685684204, 428.5103738307953, 428.65417981147766, 428.8001608848572, 428.9504888057709, 429.09498381614685, 429.23163199424744, 429.3856599330902, 429.5124638080597]","right",1,"PROA001",59.87056106,"PSAP_PRO_A","2015_Dec_09_1102","A",426.1408379,427.8983788,428.029001,428.1930249,428.3428369,428.5103738,428.6541798,428.8001609,428.9504888,429.0949838,429.231632,429.3856599,429.5124638,NA,NA,NA,NA,1.757540941,0.130622149,0.164023876,0.149811983,0.167536974,0.143805981,0.145981073,0.150327921,0.14449501,0.136648178,0.154027939,0.126803875,NA,NA,NA,0.280968825
"80",29.36,19.57,0,76,76,34,"",NA,"",NA,"",NA,430.249620914,"Wed Dec  9 11:08:47 2015",1,1.52162194252,"bank",434.713063002,"Wed Dec  9 11:08:51 2015",10,"[432.35817193984985, 432.51878595352173, 432.6686358451843, 432.8253548145294, 432.9693808555603, 433.1262288093567, 433.28716802597046, 433.4543218612671, 433.5740339756012, 433.70424485206604]","right",1,"PROA001",59.8705610638,"PSAP_PRO_A","2015_Dec_09_1102","A",NA,29.36,19.57,0,76,76,34,NA,NA,NA,NA,NA,NA,430.2496209,"Wed Dec  9 11:08:47 2015",1,1.521621943,"bank",434.713063,"Wed Dec  9 11:08:51 2015",10,"[432.35817193984985, 432.51878595352173, 432.6686358451843, 432.8253548145294, 432.9693808555603, 433.1262288093567, 433.28716802597046, 433.4543218612671, 433.5740339756012, 433.70424485206604]","right",1,"PROA001",59.87056106,"PSAP_PRO_A","2015_Dec_09_1102","A",430.2496209,432.3581719,432.518786,432.6686358,432.8253548,432.9693809,433.1262288,433.287168,433.4543219,433.574034,433.7042449,NA,NA,NA,NA,NA,NA,2.108551026,0.160614014,0.149849892,0.156718969,0.144026041,0.156847954,0.160939217,0.167153835,0.119712114,0.130210876,NA,NA,NA,NA,NA,0.345462394
"81",13.61,9.07,0,77,77,40,"",NA,"",NA,"",NA,434.714144945,"Wed Dec  9 11:08:51 2015",0,1.07034111023,"bank",438.833315849,"Wed Dec  9 11:08:55 2015",11,"[436.49346685409546, 436.6438570022583, 436.78378200531006, 436.9346179962158, 437.0952889919281, 437.24547696113586, 437.4022648334503, 437.56937193870544, 437.71279191970825, 437.829176902771, 437.9834740161896]","left",1,"PROA001",59.8705610638,"PSAP_PRO_A","2015_Dec_09_1102","A",NA,13.61,9.07,0,77,77,40,NA,NA,NA,NA,NA,NA,434.7141449,"Wed Dec  9 11:08:51 2015",0,1.07034111,"bank",438.8333158,"Wed Dec  9 11:08:55 2015",11,"[436.49346685409546, 436.6438570022583, 436.78378200531006, 436.9346179962158, 437.0952889919281, 437.24547696113586, 437.4022648334503, 437.56937193870544, 437.71279191970825, 437.829176902771, 437.9834740161896]","left",1,"PROA001",59.87056106,"PSAP_PRO_A","2015_Dec_09_1102","A",434.7141449,436.4934669,436.643857,436.783782,436.934618,437.095289,437.245477,437.4022648,437.5693719,437.7127919,437.8291769,437.983474,NA,NA,NA,NA,NA,1.779321909,0.150390148,0.139925003,0.150835991,0.160670996,0.150187969,0.156787872,0.167107105,0.143419981,0.116384983,0.154297113,NA,NA,NA,NA,0.297211734
"82",69.64,38.69,0,78,78,60,"",NA,"",NA,"",NA,438.834561825,"Wed Dec  9 11:08:55 2015",0,1.90538978577,"bank",443.810321808,"Wed Dec  9 11:09:00 2015",11,"[441.46041679382324, 441.65080881118774, 441.7488718032837, 441.8949418067932, 442.0386769771576, 442.20596385002136, 442.3565638065338, 442.4896879196167, 442.6569848060608, 442.8069908618927, 442.93516182899475]","left",1,"PROA001",59.8705610638,"PSAP_PRO_A","2015_Dec_09_1102","A",NA,69.64,38.69,0,78,78,60,NA,NA,NA,NA,NA,NA,438.8345618,"Wed Dec  9 11:08:55 2015",0,1.905389786,"bank",443.8103218,"Wed Dec  9 11:09:00 2015",11,"[441.46041679382324, 441.65080881118774, 441.7488718032837, 441.8949418067932, 442.0386769771576, 442.20596385002136, 442.3565638065338, 442.4896879196167, 442.6569848060608, 442.8069908618927, 442.93516182899475]","left",1,"PROA001",59.87056106,"PSAP_PRO_A","2015_Dec_09_1102","A",438.8345618,441.4604168,441.6508088,441.7488718,441.8949418,442.038677,442.2059639,442.3565638,442.4896879,442.6569848,442.8069909,442.9351618,NA,NA,NA,NA,NA,2.625854969,0.190392017,0.098062992,0.146070004,0.14373517,0.167286873,0.150599957,0.133124113,0.167296886,0.150006056,0.128170967,NA,NA,NA,NA,0.372781819
"83",50.4,28,0,79,79,48,"",NA,"",NA,"",NA,443.811615944,"Wed Dec  9 11:09:00 2015",0,0.535583019257,"bank",447.434978008,"Wed Dec  9 11:09:04 2015",11,"[445.0787878036499, 445.21216082572937, 445.3692479133606, 445.4965817928314, 445.6533079147339, 445.81369400024414, 445.96991896629333, 446.1171009540558, 446.2543020248413, 446.4313769340515, 446.5649788379669]","left",1,"PROA001",59.8705610638,"PSAP_PRO_A","2015_Dec_09_1102","A",NA,50.4,28,0,79,79,48,NA,NA,NA,NA,NA,NA,443.8116159,"Wed Dec  9 11:09:00 2015",0,0.535583019,"bank",447.434978,"Wed Dec  9 11:09:04 2015",11,"[445.0787878036499, 445.21216082572937, 445.3692479133606, 445.4965817928314, 445.6533079147339, 445.81369400024414, 445.96991896629333, 446.1171009540558, 446.2543020248413, 446.4313769340515, 446.5649788379669]","left",1,"PROA001",59.87056106,"PSAP_PRO_A","2015_Dec_09_1102","A",443.8116159,445.0787878,445.2121608,445.3692479,445.4965818,445.6533079,445.813694,445.969919,446.117101,446.254302,446.4313769,446.5649788,NA,NA,NA,NA,NA,1.26717186,0.133373022,0.157087088,0.127333879,0.156726122,0.160386086,0.156224966,0.147181988,0.137201071,0.177074909,0.133601904,NA,NA,NA,NA,0.250305718
"84",52.16,23.18,0,80,80,82,"",NA,"",NA,"",NA,447.436235905,"Wed Dec  9 11:09:04 2015",1,2.40572404861,"steal",452.695395947,"Wed Dec  9 11:09:09 2015",11,"[450.36676502227783, 450.50724482536316, 450.65697979927063, 450.8142669200897, 450.95793890953064, 451.09167981147766, 451.2296359539032, 451.37523078918457, 451.5423848628998, 451.693030834198, 451.82977294921875]","left",1,"PROA001",59.8705610638,"PSAP_PRO_A","2015_Dec_09_1102","A",NA,52.16,23.18,0,80,80,82,NA,NA,NA,NA,NA,NA,447.4362359,"Wed Dec  9 11:09:04 2015",1,2.405724049,"steal",452.6953959,"Wed Dec  9 11:09:09 2015",11,"[450.36676502227783, 450.50724482536316, 450.65697979927063, 450.8142669200897, 450.95793890953064, 451.09167981147766, 451.2296359539032, 451.37523078918457, 451.5423848628998, 451.693030834198, 451.82977294921875]","left",1,"PROA001",59.87056106,"PSAP_PRO_A","2015_Dec_09_1102","A",447.4362359,450.366765,450.5072448,450.6569798,450.8142669,450.9579389,451.0916798,451.229636,451.3752308,451.5423849,451.6930308,451.8297729,NA,NA,NA,NA,NA,2.930529117,0.140479803,0.149734974,0.157287121,0.143671989,0.133740902,0.137956142,0.145594835,0.167154074,0.150645971,0.136742115,NA,NA,NA,NA,0.399412459
"85",39.7,26.47,0,81,81,46,"",NA,"",NA,"",NA,452.696285009,"Wed Dec  9 11:09:09 2015",0,0.736429929733,"bank",456.57088685,"Wed Dec  9 11:09:13 2015",11,"[454.1488959789276, 454.304890871048, 454.45492482185364, 454.6217520236969, 454.7771589756012, 454.93317699432373, 455.0896248817444, 455.23675894737244, 455.41721200942993, 455.56793689727783, 455.7120678424835]","left",1,"PROA001",59.8705610638,"PSAP_PRO_A","2015_Dec_09_1102","A",NA,39.7,26.47,0,81,81,46,NA,NA,NA,NA,NA,NA,452.696285,"Wed Dec  9 11:09:09 2015",0,0.73642993,"bank",456.5708869,"Wed Dec  9 11:09:13 2015",11,"[454.1488959789276, 454.304890871048, 454.45492482185364, 454.6217520236969, 454.7771589756012, 454.93317699432373, 455.0896248817444, 455.23675894737244, 455.41721200942993, 455.56793689727783, 455.7120678424835]","left",1,"PROA001",59.87056106,"PSAP_PRO_A","2015_Dec_09_1102","A",452.696285,454.148896,454.3048909,454.4549248,454.621752,454.777159,454.933177,455.0896249,455.2367589,455.417212,455.5679369,455.7120678,NA,NA,NA,NA,NA,1.45261097,0.155994892,0.150033951,0.166827202,0.155406952,0.156018019,0.156447887,0.147134066,0.180453062,0.150724888,0.144130945,NA,NA,NA,NA,0.274162076
"86",56.11,37.41,0,82,82,35,"",NA,"",NA,"",NA,456.572227001,"Wed Dec  9 11:09:13 2015",0,1.6381380558,"bank",461.264395952,"Wed Dec  9 11:09:18 2015",11,"[458.9521658420563, 459.075434923172, 459.2118217945099, 459.34259700775146, 459.4923348426819, 459.65922379493713, 459.8167278766632, 459.9602048397064, 460.1168999671936, 460.26079201698303, 460.37218594551086]","left",1,"PROA001",59.8705610638,"PSAP_PRO_A","2015_Dec_09_1102","A",NA,56.11,37.41,0,82,82,35,NA,NA,NA,NA,NA,NA,456.572227,"Wed Dec  9 11:09:13 2015",0,1.638138056,"bank",461.264396,"Wed Dec  9 11:09:18 2015",11,"[458.9521658420563, 459.075434923172, 459.2118217945099, 459.34259700775146, 459.4923348426819, 459.65922379493713, 459.8167278766632, 459.9602048397064, 460.1168999671936, 460.26079201698303, 460.37218594551086]","left",1,"PROA001",59.87056106,"PSAP_PRO_A","2015_Dec_09_1102","A",456.572227,458.9521658,459.0754349,459.2118218,459.342597,459.4923348,459.6592238,459.8167279,459.9602048,460.1169,460.260792,460.3721859,NA,NA,NA,NA,NA,2.379938841,0.123269081,0.136386871,0.130775213,0.149737835,0.166888952,0.157504082,0.143476963,0.156695127,0.14389205,0.111393929,NA,NA,NA,NA,0.345450813
"87",66.06,29.36,0,83,83,77,"",NA,"",NA,"",NA,461.265588999,"Wed Dec  9 11:09:18 2015",1,1.10265088081,"steal",465.28964901,"Wed Dec  9 11:09:22 2015",11,"[462.956729888916, 463.10059094429016, 463.2446458339691, 463.3908460140228, 463.53479290008545, 463.7018938064575, 463.8383228778839, 463.98591899871826, 464.13573384284973, 464.2760908603668, 464.44739294052124]","left",1,"PROA001",59.8705610638,"PSAP_PRO_A","2015_Dec_09_1102","A",NA,66.06,29.36,0,83,83,77,NA,NA,NA,NA,NA,NA,461.265589,"Wed Dec  9 11:09:18 2015",1,1.102650881,"steal",465.289649,"Wed Dec  9 11:09:22 2015",11,"[462.956729888916, 463.10059094429016, 463.2446458339691, 463.3908460140228, 463.53479290008545, 463.7018938064575, 463.8383228778839, 463.98591899871826, 464.13573384284973, 464.2760908603668, 464.44739294052124]","left",1,"PROA001",59.87056106,"PSAP_PRO_A","2015_Dec_09_1102","A",461.265589,462.9567299,463.1005909,463.2446458,463.390846,463.5347929,463.7018938,463.8383229,463.985919,464.1357338,464.2760909,464.4473929,NA,NA,NA,NA,NA,1.69114089,0.143861055,0.14405489,0.14620018,0.143946886,0.167100906,0.136429071,0.147596121,0.149814844,0.140357018,0.17130208,NA,NA,NA,NA,0.289254904
"88",99.79,44.35,0,84,84,74,"",NA,"",NA,"",NA,465.290879011,"Wed Dec  9 11:09:22 2015",1,0.903402090073,"steal",469.14785099,"Wed Dec  9 11:09:26 2015",11,"[466.7751920223236, 466.92492389678955, 467.08779883384705, 467.23311400413513, 467.37599897384644, 467.5182340145111, 467.6770169734955, 467.8302218914032, 467.96422290802, 468.1338038444519, 468.285089969635]","left",1,"PROA001",59.8705610638,"PSAP_PRO_A","2015_Dec_09_1102","A",NA,99.79,44.35,0,84,84,74,NA,NA,NA,NA,NA,NA,465.290879,"Wed Dec  9 11:09:22 2015",1,0.90340209,"steal",469.147851,"Wed Dec  9 11:09:26 2015",11,"[466.7751920223236, 466.92492389678955, 467.08779883384705, 467.23311400413513, 467.37599897384644, 467.5182340145111, 467.6770169734955, 467.8302218914032, 467.96422290802, 468.1338038444519, 468.285089969635]","left",1,"PROA001",59.87056106,"PSAP_PRO_A","2015_Dec_09_1102","A",465.290879,466.775192,466.9249239,467.0877988,467.233114,467.375999,467.518234,467.677017,467.8302219,467.9642229,468.1338038,468.28509,NA,NA,NA,NA,NA,1.484313011,0.149731874,0.162874937,0.14531517,0.14288497,0.142235041,0.158782959,0.153204918,0.134001017,0.169580936,0.151286125,NA,NA,NA,NA,0.272200996
"89",35.25,26.11,0,85,85,26,"",NA,"",NA,"",NA,469.14912796,"Wed Dec  9 11:09:26 2015",1,0.819774866104,"bank",472.958175898,"Wed Dec  9 11:09:29 2015",10,"[470.5493199825287, 470.7001039981842, 470.8367598056793, 470.98365092277527, 471.14058685302734, 471.30121088027954, 471.4683668613434, 471.60902190208435, 471.7583239078522, 471.94207882881165]","right",1,"PROA001",59.8705610638,"PSAP_PRO_A","2015_Dec_09_1102","A",NA,35.25,26.11,0,85,85,26,NA,NA,NA,NA,NA,NA,469.149128,"Wed Dec  9 11:09:26 2015",1,0.819774866,"bank",472.9581759,"Wed Dec  9 11:09:29 2015",10,"[470.5493199825287, 470.7001039981842, 470.8367598056793, 470.98365092277527, 471.14058685302734, 471.30121088027954, 471.4683668613434, 471.60902190208435, 471.7583239078522, 471.94207882881165]","right",1,"PROA001",59.87056106,"PSAP_PRO_A","2015_Dec_09_1102","A",469.149128,470.54932,470.700104,470.8367598,470.9836509,471.1405869,471.3012109,471.4683669,471.6090219,471.7583239,471.9420788,NA,NA,NA,NA,NA,NA,1.400192023,0.150784016,0.136655807,0.146891117,0.15693593,0.160624027,0.167155981,0.140655041,0.149302006,0.183754921,NA,NA,NA,NA,NA,0.279295087
